"Time (s)","Linear Acceleration x (m/s^2)","Linear Acceleration y (m/s^2)","Linear Acceleration z (m/s^2)"
1.560816190E-1,2.830362320E-2,8.157968521E-2,1.900496483E-1
1.749062020E-1,-1.836748123E-1,1.811027527E-2,7.200241089E-2
1.937307850E-1,-3.616151810E-1,-3.445434570E-2,-7.978916168E-2
2.125554210E-1,-3.730740547E-1,-8.497905731E-2,-1.401977539E-1
2.313800040E-1,-2.504582405E-1,-1.226410866E-1,-1.062002182E-1
2.502045870E-1,-1.509499550E-1,-9.653329849E-2,-4.217767715E-2
2.690292230E-1,-1.107816696E-1,-6.741285324E-2,-5.131196976E-2
2.878538060E-1,-6.733512878E-2,-2.620220184E-2,-9.981060028E-2
3.066783890E-1,-2.178287506E-2,3.666782379E-2,-1.357860565E-1
3.255029730E-1,-4.080772400E-3,8.859634399E-2,-1.550073624E-1
3.443276080E-1,-3.663349152E-2,1.034975052E-1,-1.114130020E-1
3.631521920E-1,-4.065084457E-2,7.649612427E-2,-8.828544617E-2
3.819767750E-1,-1.531124115E-2,4.112434387E-2,-5.987596512E-2
4.008014100E-1,-7.882404327E-2,3.250980377E-2,-3.771352768E-2
4.196259940E-1,-1.591563225E-1,-3.914833069E-3,-7.740831375E-2
4.384505770E-1,-1.976351738E-1,-2.162885666E-2,-8.767461777E-2
4.572752120E-1,-2.164349556E-1,-7.868766785E-3,-9.309673309E-2
4.760997960E-1,-2.055377960E-1,5.975246429E-2,-4.854297638E-2
4.949243790E-1,-1.197309494E-1,1.025600433E-1,-3.656101227E-2
5.137490140E-1,2.981185913E-2,1.582818031E-1,-1.051902771E-2
5.325735980E-1,5.536460876E-2,1.613430977E-1,-4.340076447E-2
5.513981810E-1,4.763221741E-2,1.781506538E-1,-7.155990601E-2
5.702228170E-1,7.618331909E-2,1.497921944E-1,-1.452651024E-1
5.890474000E-1,1.636142731E-1,1.950922012E-1,-1.061668396E-1
6.078719830E-1,3.030943871E-1,1.966619492E-1,7.021474838E-2
6.266966190E-1,2.520375252E-1,1.940569878E-1,1.128673553E-2
6.455212020E-1,1.515326500E-1,1.193928719E-1,1.472377777E-2
6.643457850E-1,1.334958076E-1,1.082038879E-2,-9.629058838E-2
6.831704210E-1,1.062850952E-1,-4.231071472E-2,-5.629873276E-2
7.019950040E-1,7.534980774E-2,1.036453247E-2,5.638885498E-2
7.208195870E-1,9.383106232E-2,1.213645935E-2,1.535267830E-1
7.396442230E-1,6.842660904E-2,-8.305549622E-3,1.836347580E-1
7.584688060E-1,-8.495950699E-2,3.763055801E-2,1.764421463E-1
7.772933890E-1,-1.677765846E-1,1.452932358E-1,8.973789215E-2
7.961180250E-1,-1.791548729E-1,2.070031166E-1,1.039671898E-1
8.149426080E-1,-7.008838654E-2,1.913719177E-1,8.904170990E-2
8.337672440E-1,1.433691978E-1,1.859865189E-1,5.413484573E-2
8.525918270E-1,3.685131073E-1,1.411738396E-1,-9.741973877E-2
8.714164100E-1,4.902944565E-1,2.224173546E-1,-4.555940628E-2
8.902410460E-1,4.393227100E-1,1.799292564E-1,-3.950500488E-2
9.090656290E-1,2.401547432E-1,1.949872971E-1,-8.234548569E-2
9.278902640E-1,1.195907593E-2,1.466164589E-1,-2.440404892E-2
9.467148480E-1,-8.335351944E-2,-4.207134247E-3,-3.523826599E-4
9.655394310E-1,-1.917490959E-1,-1.515302658E-1,-1.543822289E-1
9.843640670E-1,-4.049162865E-1,-2.625889778E-1,-2.339868546E-1
1.003188650E0,-5.433969498E-1,-2.450733185E-1,-2.090330124E-1
1.022013285E0,-5.643687248E-1,-2.455449104E-1,-2.199182510E-1
1.040837869E0,-6.306514740E-1,-2.782287598E-1,-4.729499817E-1
1.059662452E0,-6.165719032E-1,-3.116736412E-1,-6.557068825E-1
1.078487087E0,-3.558468819E-1,-3.886928558E-1,-8.160429001E-1
1.097311671E0,-2.663946152E-2,-3.956036568E-1,-8.135614395E-1
1.116136306E0,2.677965164E-1,-3.304834366E-1,-6.560645103E-1
1.134960889E0,3.938453197E-1,-1.865439415E-1,-6.140828133E-1
1.153785525E0,4.934434891E-1,-1.606197357E-1,-6.333379745E-1
1.172610108E0,4.515264034E-1,-4.581165314E-2,-5.328636169E-1
1.191434692E0,2.493391037E-1,1.612076759E-1,-5.222020149E-1
1.210259327E0,2.715325356E-2,1.290283203E-1,-6.627984047E-1
1.229083910E0,-2.645983696E-1,2.558197975E-1,-2.002644539E-1
1.247908546E0,-5.601007938E-1,3.417844772E-1,3.657855988E-1
1.266733129E0,-6.893651485E-1,2.107262611E-1,3.551735878E-1
1.285557764E0,-7.516839504E-1,1.088232994E-1,3.942160606E-1
1.304382348E0,-6.687180996E-1,1.019830704E-1,5.619454384E-1
1.323206983E0,-6.488373280E-1,1.518363953E-1,6.222434044E-1
1.342031567E0,-6.423609257E-1,1.122069359E-1,3.419699669E-1
1.360856150E0,-4.465026855E-1,5.273580551E-2,1.329960823E-1
1.379680785E0,-6.832146645E-2,3.435087204E-2,7.043933868E-2
1.398505369E0,3.144025803E-1,4.124116898E-2,1.209497452E-2
1.417330004E0,6.108808517E-1,1.874542236E-2,-6.913185120E-2
1.436154587E0,6.417467594E-1,5.560874939E-2,-1.552929878E-1
1.454979223E0,3.879692554E-1,1.121230125E-1,-3.572077751E-1
1.473803806E0,2.487230301E-1,1.830196381E-2,-5.654668808E-1
1.492628442E0,1.455965042E-1,2.631521225E-2,-5.667104721E-1
1.511453025E0,8.582735062E-2,5.623149872E-2,-4.432163239E-1
1.530277660E0,1.543800831E-1,6.482172012E-2,-2.025699615E-1
1.549102244E0,1.105444431E-1,2.005043030E-1,-1.119995117E-1
1.567926879E0,9.116363525E-2,2.320690155E-1,-2.347259521E-1
1.586751462E0,3.094305992E-1,3.127717972E-2,-2.883367538E-1
1.605576098E0,3.331367970E-1,-1.288080215E-1,2.514362335E-2
1.624400681E0,-1.455209255E-1,4.057860374E-1,4.593534470E-1
1.643225317E0,-2.682337761E-1,2.244219780E-1,3.680443764E-1
1.662049900E0,-2.362401485E-1,2.068376541E-2,7.660293579E-2
1.680874535E0,1.102638245E-2,8.793449402E-2,-3.828430176E-2
1.699699119E0,4.801969528E-1,3.031530380E-1,3.164029121E-1
1.718523754E0,8.304145336E-1,5.052113533E-1,5.747590065E-1
1.737348337E0,1.014034510E0,5.442085266E-1,5.281853676E-1
1.756172973E0,9.456763268E-1,4.753780365E-1,2.353935242E-1
1.774997556E0,7.622275352E-1,3.803558350E-1,-2.305269241E-2
1.793822192E0,6.532700062E-1,3.847718239E-1,2.425146103E-2
1.812646775E0,4.750998020E-1,3.896203041E-1,2.474822998E-1
1.831471410E0,2.051227093E-1,4.462814331E-1,3.345541954E-1
1.850295994E0,-1.311507225E-1,3.509593010E-1,2.245807648E-1
1.869120629E0,-5.648281574E-1,3.951301575E-1,4.891014099E-2
1.887945212E0,-7.122688293E-1,1.666111946E-1,-3.362798691E-2
1.906769848E0,-6.826672554E-1,1.502170563E-1,-3.963708878E-2
1.925594483E0,-5.894272327E-1,1.174759865E-1,-2.325391769E-2
1.944419067E0,-4.538342953E-1,7.179832458E-2,-8.573055267E-2
1.963243702E0,-3.190112114E-1,2.416224480E-1,-1.597008705E-1
1.982068285E0,-9.823250771E-2,2.697949409E-1,-3.242754936E-1
2.000892921E0,8.608675003E-2,4.089326859E-1,-5.385279655E-1
2.019717556E0,4.434218407E-1,4.387321472E-1,-8.647632599E-1
2.038542139E0,7.226749659E-1,5.299301147E-1,-1.003874779E0
2.057366775E0,1.089700341E0,4.286255836E-1,-1.168823719E0
2.076191358E0,1.353472471E0,3.675541878E-1,-1.387372971E0
2.095015994E0,1.520609379E0,3.532133102E-1,-1.535824299E0
2.113840629E0,1.610421658E0,1.145973206E-1,-1.763613939E0
2.132665212E0,1.529929042E0,1.150431633E-1,-1.918204546E0
2.151489848E0,1.240429640E0,2.756843567E-1,-2.197502136E0
2.170314431E0,7.419536114E-1,3.891677856E-1,-2.472065210E0
2.189139067E0,4.475015402E-1,1.746673584E-1,-2.572590113E0
2.207963702E0,2.552208900E-1,1.670956612E-1,-2.703104973E0
2.226788285E0,-1.196602583E-1,6.818661690E-1,-2.786868095E0
2.245612921E0,-1.014479399E0,1.686698437E0,-2.608986139E0
2.264437556E0,-1.537709832E0,2.107995033E0,-2.652336597E0
2.283262139E0,-2.009795427E0,1.171485901E0,-2.904916286E0
2.302086775E0,-2.638092995E0,3.387813568E-1,-2.979441643E0
2.320911358E0,-2.897049665E0,9.994506836E-4,-2.277202606E0
2.339735994E0,-3.504853725E0,-1.377010345E-1,-1.514417410E0
2.358560629E0,-3.827439785E0,-2.331142426E-1,-9.202487469E-1
2.377385212E0,-3.918214798E0,2.158498764E-1,-3.983497620E-3
2.396209848E0,-4.047180176E0,7.017955780E-1,9.847898483E-1
2.415034483E0,-4.123534203E0,6.919231415E-1,1.984813690E0
2.433859067E0,-3.650126696E0,8.224754333E-1,2.113225937E0
2.452683702E0,-3.095672846E0,1.027371407E0,2.850728035E0
2.471508337E0,-1.921285391E0,1.281533241E0,3.577652454E0
2.490332921E0,-1.055325031E0,7.720975876E-1,3.033441067E0
2.509284067E0,-6.940953732E-1,7.714605331E-1,1.296282768E0
2.528484952E0,-2.944710255E-1,7.919197083E-1,-3.413376808E-1
2.547685785E0,-1.435112953E-1,7.819309235E-1,-9.593408108E-1
2.566886671E0,3.794469833E-1,6.390600204E-1,-1.080732822E0
2.586087504E0,1.852628946E0,4.282574654E-1,-9.531354904E-1
2.605288389E0,3.036627531E0,6.461939812E-1,4.379687309E-1
2.624458337E0,2.929845095E0,-1.764459610E-1,4.835386276E-1
2.643282973E0,1.684436917E0,2.551522255E-1,8.207478523E-1
2.662107556E0,5.328342915E-1,1.066110611E0,7.792615891E-1
2.680932192E0,-4.007685184E-1,2.821602821E-1,-9.726061821E-1
2.699756827E0,-1.233164787E0,-3.485388756E-1,-1.751161337E0
2.718581410E0,-1.339747667E0,-8.818144798E-1,-2.224690199E0
2.737406046E0,-1.086872101E0,-1.021015167E0,-2.406287909E0
2.756230681E0,-5.510511398E-1,-1.071655750E0,-2.288800955E0
2.775055264E0,2.707202435E-1,-1.241083622E0,-2.277901173E0
2.793879900E0,7.859818935E-1,-6.027040482E-1,-1.980693340E0
2.812704535E0,1.176350474E0,-7.402610779E-2,-1.713815928E0
2.831529119E0,1.361425042E0,-1.496362686E-1,-1.622319460E0
2.850353754E0,1.146230698E0,2.002120018E-1,-1.591083765E0
2.869178389E0,1.323605418E0,7.324581146E-1,-1.619049311E0
2.888003025E0,1.815022826E0,1.043112278E0,-8.327612877E-1
2.906827608E0,2.298780680E0,1.097529411E0,-5.083322525E-2
2.925652244E0,2.288909912E0,9.154863358E-1,4.478092194E-1
2.944476879E0,2.026331425E0,7.505464554E-1,4.445304871E-1
2.963301462E0,1.612892032E0,7.995977402E-1,4.219861031E-1
2.982126098E0,1.602818608E0,1.132609367E0,6.328654289E-1
3.000950733E0,1.263170838E0,1.195795059E0,1.004210949E0
3.019775369E0,9.969589710E-1,1.195543289E0,1.054414749E0
3.038599952E0,9.285395145E-1,8.636274338E-1,1.018710613E0
3.057424587E0,8.927030563E-1,5.899448395E-1,6.726980209E-1
3.076249223E0,9.120235443E-1,4.665517807E-1,6.382913589E-1
3.095073858E0,8.404049873E-1,3.453884125E-1,5.305213928E-1
3.113898494E0,4.918031693E-1,4.100856781E-1,2.154798508E-1
3.132723077E0,1.471166611E-1,3.790769577E-1,-8.322286606E-2
3.151547712E0,2.167890072E-1,1.760063171E-1,-4.498767853E-1
3.170372348E0,2.096607685E-1,-8.349323273E-2,-5.094206333E-1
3.189196983E0,2.470648289E-1,-3.831834793E-1,-5.527505875E-1
3.208021567E0,3.480076790E-1,-4.360074997E-1,-5.968499184E-1
3.226846202E0,4.203455448E-1,1.374263763E-1,-5.166008472E-1
3.245670837E0,4.007902145E-1,5.863065720E-1,6.057024002E-3
3.264495473E0,3.275783062E-1,4.516868591E-1,4.594025612E-1
3.283320108E0,4.246284962E-1,-1.740789413E-1,1.323604584E-1
3.302144692E0,3.981335163E-1,-5.234732628E-1,9.491229057E-2
3.320969327E0,2.032055855E-1,-3.106460571E-1,8.588359356E-1
3.339793962E0,2.303168774E-1,-4.482860565E-1,1.470203400E0
3.358618598E0,7.477538586E-1,-3.790893555E-1,1.413976431E0
3.377443233E0,1.053878307E0,-2.081270218E-1,2.420104742E0
3.396267817E0,6.882820129E-1,7.307958603E-1,4.554317951E0
3.415092452E0,-5.145592690E-1,1.120925903E0,4.224368095E0
3.433917087E0,-1.296231508E0,5.585298538E-1,2.112072945E0
3.452741723E0,-1.330595016E0,3.497390747E-1,9.571220875E-1
3.471566358E0,-1.185730696E0,8.183984756E-1,1.692861557E0
3.490390994E0,-1.272484064E0,1.244083405E0,2.571089745E0
3.509215577E0,-1.466793776E0,1.267191887E0,2.267083645E0
3.528040212E0,-1.619398117E0,1.315901756E0,1.162100315E0
3.546864848E0,-1.345291018E0,1.367694855E0,3.033037186E-1
3.565689483E0,-1.159667373E0,1.487964630E0,-9.309864044E-2
3.584514119E0,-8.960180283E-1,1.210219383E0,6.303787231E-3
3.603338754E0,-4.864839315E-1,1.450010300E0,5.151681900E-1
3.622163337E0,-3.969436884E-1,1.659904480E0,8.648734093E-1
3.640987973E0,-9.457239509E-1,1.701365948E0,3.558092117E-1
3.659812608E0,-2.206120491E0,1.633166790E0,-6.037688255E-1
3.678637244E0,-3.528473854E0,1.007005215E0,-2.230767727E0
3.697461879E0,-3.661224842E0,3.113927841E-1,-2.964852571E0
3.716286514E0,-2.955398560E0,1.277999878E-1,-2.347289562E0
3.735111150E0,-2.169562340E0,4.599237442E-2,-1.958737850E0
3.753935785E0,-1.436243296E0,2.699713707E-1,-2.544947624E0
3.772760369E0,-4.020539522E-1,2.968850136E-1,-2.814305305E0
3.791571879E0,1.002010942E0,6.841764450E-1,-2.595265865E0
3.810409639E0,2.498316526E0,9.860029221E-1,-1.509224415E0
3.829234275E0,3.761044264E0,1.471723080E0,-5.460615158E-1
3.848058910E0,4.428535461E0,1.960117817E0,9.012460709E-2
3.866883546E0,4.279984951E0,2.197667122E0,8.033542633E-1
3.885708181E0,3.151993513E0,1.635044098E0,7.885885239E-2
3.904519692E0,1.679559588E0,7.813763618E-1,-7.215270996E-1
3.923357452E0,4.432172775E-1,3.877029419E-1,-1.109439373E0
3.942182035E0,-4.317870140E-1,6.874890327E-1,-9.698324203E-1
3.961006671E0,-7.271685600E-1,1.000688553E0,-7.767300606E-1
3.979831306E0,-3.439304829E-1,8.166298866E-1,-7.406334877E-1
3.998655942E0,4.280745983E-1,3.172502518E-1,-4.582576752E-1
4.017480577E0,1.123355627E0,2.234575748E-1,7.108592987E-2
4.036305212E0,1.549285173E0,4.112768173E-2,3.926725388E-1
4.055129848E0,1.612525225E0,3.536670208E-1,3.397626877E-1
4.073954483E0,1.365816593E0,5.414745808E-1,2.173337936E-1
4.092779119E0,1.120851278E0,3.477592468E-1,-1.553668976E-1
4.111603754E0,9.803621769E-1,-1.970624924E-2,-5.470237732E-1
4.130428389E0,8.632376194E-1,-1.020827293E-1,-6.813364029E-1
4.149253025E0,7.829360962E-1,-8.556509018E-2,-7.357583046E-1
4.168077660E0,4.676547050E-1,-1.375930309E-1,-8.795127869E-1
4.186902296E0,1.781382561E-1,-1.545088291E-1,-9.372658730E-1
4.205726931E0,7.718682289E-2,-3.952507973E-1,-8.351869583E-1
4.224551567E0,6.921052933E-2,-5.687246323E-1,-7.481241226E-1
4.243376202E0,3.181505203E-2,-6.584546566E-1,-7.404651642E-1
4.262200837E0,-7.993483543E-2,-5.310584307E-1,-6.753578186E-1
4.281025421E0,-3.060464859E-1,-3.999094963E-1,-6.301975250E-1
4.299850056E0,-7.077875137E-1,-2.929103374E-1,-7.123384476E-1
4.318674744E0,-1.071983576E0,-3.727502823E-1,-8.992719650E-1
4.337499379E0,-1.275195599E0,-5.156525373E-1,-8.647508621E-1
4.356323962E0,-1.363685131E0,-5.964906216E-1,-5.518054962E-1
4.375148650E0,-1.429427624E0,-5.498553514E-1,-1.854324341E-1
4.393973285E0,-1.396753073E0,-5.825995207E-1,9.238052368E-2
4.412797921E0,-1.448460579E0,-6.476991177E-1,2.197036743E-1
4.431622556E0,-1.625424862E0,-8.148509264E-1,1.616573334E-1
4.450447192E0,-1.840912819E0,-8.850053549E-1,-1.980876923E-2
4.469271827E0,-1.965335608E0,-9.574475288E-1,-6.363964081E-2
4.488096462E0,-1.913728952E0,-9.050842524E-1,1.371088028E-1
4.506921098E0,-1.694141626E0,-8.351489305E-1,2.622289658E-1
4.525745733E0,-1.433894396E0,-4.484561682E-1,2.203893661E-1
4.544570369E0,-1.284216404E0,-7.813334465E-2,2.846164703E-1
4.563395004E0,-1.144051552E0,-2.012372017E-2,8.476352692E-2
4.582219639E0,-8.750948906E-1,-1.661787033E-1,-1.939592361E-1
4.601044275E0,-5.082290173E-1,6.094694138E-3,-5.410976410E-1
4.619868910E0,-2.533798218E-1,2.647389174E-1,-7.529678345E-1
4.638693546E0,-1.034469604E-1,4.066900015E-1,-7.381811142E-1
4.657518181E0,5.703353882E-2,4.301354885E-1,-6.086969376E-1
4.676342817E0,2.637524605E-1,3.400268555E-1,-3.808317184E-1
4.695167452E0,2.379953861E-1,1.712585688E-1,-1.951045990E-1
4.713992087E0,-1.406002045E-2,-3.472069502E-1,-2.997541428E-1
4.732816723E0,-4.582428932E-1,-7.664891481E-1,-5.581512451E-1
4.751641358E0,-9.621005058E-1,-8.029876351E-1,-7.796020508E-1
4.770466046E0,-1.302617311E0,-7.882525325E-1,-9.604578018E-1
4.789290681E0,-1.416667938E0,-6.143420935E-1,-1.119565964E0
4.808115317E0,-1.344575167E0,-2.867962122E-1,-1.177103519E0
4.826939952E0,-1.153837681E0,-3.079092503E-2,-9.937267303E-1
4.845764587E0,-9.557111263E-1,6.871879101E-2,-7.868957520E-1
4.864589223E0,-8.450210094E-1,1.684837341E-1,-6.047973633E-1
4.883413858E0,-8.071765900E-1,1.753547192E-1,-4.203462601E-1
4.902238494E0,-7.501080036E-1,1.630488634E-1,-2.374124527E-1
4.921063129E0,-7.000331879E-1,2.126793861E-1,-2.627468109E-2
4.939887817E0,-6.624577045E-1,1.447480917E-1,1.776485443E-1
4.958712452E0,-5.257902145E-1,1.214264631E-1,3.260040283E-1
4.977537087E0,-3.179025650E-1,1.192792654E-1,5.479860306E-1
4.996361723E0,-9.943675995E-2,4.966461658E-2,6.551866531E-1
5.015186358E0,-1.428079605E-2,1.530493498E-1,6.990118027E-1
5.034010994E0,-1.400299072E-1,2.565071583E-1,5.747404099E-1
5.052835629E0,-1.836581230E-1,2.002713680E-1,4.364891052E-1
5.071660264E0,-2.394714355E-1,1.789321899E-1,2.071599960E-1
5.090484900E0,-2.916407585E-1,1.758334637E-1,-1.947593689E-1
5.109309587E0,-2.480974197E-1,2.352977991E-1,-4.804210663E-1
5.128134223E0,-1.072707176E-1,3.753614426E-1,-5.712041855E-1
5.146958858E0,1.678149700E-1,4.675388336E-1,-4.281692505E-1
5.165783494E0,3.287796974E-1,6.442675591E-1,-3.564987183E-1
5.184608129E0,3.335194588E-1,6.396274567E-1,-3.716249466E-1
5.203432764E0,1.537916660E-1,4.421855211E-1,-4.770793915E-1
5.222257452E0,-5.737495422E-2,3.706807494E-1,-5.016355515E-1
5.241082087E0,-2.849702835E-1,5.147976875E-1,-4.905786514E-1
5.259906723E0,-5.171756744E-1,5.040254593E-1,-3.841657639E-1
5.278731358E0,-7.121639252E-1,5.606815219E-1,-1.931276321E-1
5.297555994E0,-7.795162201E-1,5.641264915E-1,-1.723365784E-1
5.316380681E0,-9.057621956E-1,5.656037927E-1,-2.364883423E-1
5.335205317E0,-1.026726246E0,5.131300688E-1,-3.787193298E-1
5.354029952E0,-1.030768871E0,4.110857248E-1,-6.512637138E-1
5.372854587E0,-1.039144516E0,3.306301832E-1,-1.218991756E0
5.391679223E0,-7.297859192E-1,2.410882115E-1,-1.917528629E0
5.410503910E0,-1.041688919E-1,2.157056332E-1,-2.299682140E0
5.429328546E0,5.680496693E-1,4.294074178E-1,-2.476346970E0
5.448153181E0,1.152237177E0,6.956891418E-1,-2.399650574E0
5.466977817E0,1.326300621E0,1.310618877E0,-2.029169559E0
5.485802504E0,1.501754522E0,2.009432793E0,-1.634147167E0
5.504627139E0,1.938361406E0,2.078758001E0,-1.110016346E0
5.523451775E0,2.540749073E0,1.877394319E0,-5.847263336E-1
5.542276410E0,3.176225662E0,1.517945170E0,5.434703827E-2
5.561101046E0,3.735185623E0,1.050152063E0,9.004631042E-1
5.579925733E0,4.014945984E0,1.291365027E0,2.009638786E0
5.598750369E0,3.859248161E0,1.491780758E0,2.681515694E0
5.617575004E0,3.771955252E0,1.280135393E0,3.168157578E0
5.636399692E0,3.541367292E0,1.263721704E0,3.561435699E0
5.655224327E0,2.873004675E0,1.678683043E0,3.739382744E0
5.674048962E0,2.019027233E0,2.533077002E0,3.520646095E0
5.692873598E0,1.309178829E0,2.875825405E0,3.256658554E0
5.711698285E0,9.595284462E-1,2.342922688E0,2.755021095E0
5.730522921E0,8.268661499E-1,1.543490410E0,2.086796761E0
5.749347556E0,2.887353897E-1,1.133731127E0,1.228375435E0
5.768172244E0,-5.182714462E-1,1.182874203E0,3.282546997E-1
5.786996879E0,-1.035122156E0,1.041945219E0,-2.320766449E-2
5.805821514E0,-1.033997774E0,6.436965466E-1,1.343660355E-1
5.824646202E0,-1.026808262E0,4.660167694E-1,1.966667175E-2
5.843470837E0,-1.096333742E0,7.416074276E-1,4.351043701E-2
5.862295473E0,-1.184661865E0,9.819014072E-1,2.657880783E-1
5.881120160E0,-1.222056389E0,9.016687870E-1,3.978977203E-1
5.899944796E0,-1.062855482E0,1.898485422E-1,4.048633575E-1
5.918769483E0,-1.255731106E0,-4.237209558E-1,1.478939056E-1
5.937594119E0,-1.864134312E0,-5.423481464E-1,-1.635484695E-1
5.956418754E0,-2.541116714E0,-3.067512512E-1,-3.551120758E-1
5.975243442E0,-2.740444183E0,-5.518603325E-1,-6.488342285E-1
5.994068077E0,-2.501792908E0,-7.292258739E-1,-8.909549713E-1
6.012892712E0,-2.091736317E0,-7.341274023E-1,-1.423286438E0
6.031717400E0,-1.590070486E0,-9.099599123E-1,-2.014300823E0
6.050542035E0,-1.084319115E0,-9.254775047E-1,-2.261369705E0
6.069366671E0,-7.185888290E-1,-2.378997803E-1,-1.935186863E0
6.088191358E0,-3.774825335E-1,1.150004864E-1,-1.403880596E0
6.107015994E0,-3.543782234E-2,-1.040234566E-1,-1.137989998E0
6.125840681E0,2.678402662E-1,-4.222675562E-1,-1.048388481E0
6.144665317E0,1.234339476E-1,-5.697927475E-1,-1.078680038E0
6.163489952E0,-3.013641834E-1,-5.310056210E-1,-1.124975204E0
6.182314639E0,-7.885551453E-1,-3.024419546E-1,-9.436626434E-1
6.201139275E0,-8.367896080E-1,-3.299067020E-1,-9.365224838E-1
6.219963962E0,-3.311440945E-1,-5.967353582E-1,-8.666648865E-1
6.238788598E0,-1.813910007E-1,-5.136846304E-1,-6.628131866E-1
6.257613233E0,-3.252906799E-1,-4.979531765E-1,-4.290637970E-1
6.276437921E0,-4.117461443E-1,-5.519342422E-1,-3.581571579E-1
6.295262556E0,-2.671242952E-1,-5.640609264E-1,-1.970167160E-1
6.314087244E0,-2.224227190E-1,-4.098329544E-1,1.921463013E-2
6.332911879E0,-2.524347305E-1,-3.667085171E-1,1.527252197E-1
6.351736567E0,-2.184845209E-1,-5.300989151E-1,1.072006226E-1
6.370561202E0,-2.331705093E-1,-8.125717640E-1,1.650705338E-1
6.389385889E0,-6.288529634E-1,-7.324078083E-1,2.975034714E-1
6.408210525E0,-1.022359371E0,-7.195265293E-1,3.587369919E-1
6.427035160E0,-1.241310835E0,-6.823012829E-1,5.318813324E-1
6.445859848E0,-1.495218039E0,-5.684590340E-1,7.613220215E-1
6.464684535E0,-1.580841303E0,-7.939822674E-1,6.068439484E-1
6.483509171E0,-1.658941507E0,-6.015598774E-1,3.103761673E-1
6.502333806E0,-1.591186762E0,2.425646782E-1,3.693704605E-1
6.521158494E0,-1.302928686E0,1.203097820E0,7.534294128E-1
6.539983181E0,-7.966229916E-1,9.882626534E-1,9.139308929E-1
6.558807817E0,-3.824219704E-1,8.216745853E-1,6.729612350E-1
6.577632504E0,-4.205935001E-1,8.337566853E-1,4.251995087E-1
6.596457139E0,-5.121800900E-1,5.518512726E-1,-1.404685974E-1
6.615281775E0,-3.398890495E-1,2.664461136E-1,-6.577849388E-1
6.634106462E0,5.131459236E-2,2.849667072E-1,-8.856654167E-1
6.652931150E0,8.818743229E-1,-4.038343430E-1,-1.228237152E0
6.671755785E0,1.399219275E0,-3.777465820E-1,-1.404242992E0
6.690580473E0,8.453869820E-1,5.483670235E-1,-1.315300941E0
6.709405108E0,4.808406830E-1,1.505723000E0,-7.553334236E-1
6.728229796E0,4.462931156E-1,1.566799879E0,2.057237625E-1
6.747054431E0,1.152288914E-1,7.911813259E-1,1.064306259E0
6.765879119E0,-9.490699768E-1,-3.178696632E-1,1.146480560E0
6.784703806E0,-2.118725777E0,-9.808683395E-1,1.046607018E0
6.803528442E0,-2.676075935E0,-1.198552370E0,9.202260971E-1
6.822353129E0,-2.590573311E0,-1.139316320E0,1.090997696E0
6.841177764E0,-2.085394382E0,-1.138737082E0,1.340173721E0
6.860002452E0,-1.533075333E0,-8.046987057E-1,1.559112549E0
6.878827087E0,-1.007886887E0,-3.083770275E-1,1.688657761E0
6.897651775E0,-7.059814930E-1,5.130519867E-1,1.701517105E0
6.916476462E0,-5.031058788E-1,1.129429817E0,1.363186836E0
6.935301098E0,1.495957375E-1,5.225284100E-1,6.296606064E-1
6.954125785E0,1.161227465E0,-1.830673218E-2,-1.358890533E-2
6.972950473E0,1.723016739E0,5.226883888E-1,2.025985718E-2
6.991775108E0,1.842799425E0,2.325520992E0,5.277156830E-2
7.010599796E0,1.584151149E0,3.429558754E0,2.914161682E-1
7.029424483E0,1.354090691E0,2.984887362E0,2.248477936E-1
7.048249119E0,1.334612250E0,1.404546499E0,-2.666730881E-1
7.067060681E0,8.566265106E-1,-2.443358898E-1,-1.521854877E0
7.085898494E0,1.234896183E-1,-1.059748888E0,-2.941122532E0
7.104723129E0,-1.615221500E-1,-1.502324343E0,-3.247615337E0
7.123547817E0,7.193546295E-1,-1.583139300E0,-3.115365982E0
7.142372452E0,1.111693859E0,3.579783440E-2,-2.435356140E0
7.161197139E0,1.024731278E0,9.029388428E-1,-1.780518055E0
7.180021827E0,9.866109490E-1,7.825274467E-1,-1.458849907E0
7.198846462E0,9.180462360E-2,7.637460232E-1,-9.481220245E-1
7.217671150E0,-9.267663956E-1,4.232022762E-1,-6.661777496E-1
7.236482712E0,-2.387799263E0,4.816644192E-1,-3.518581390E-1
7.255320525E0,-3.615222931E0,2.736854553E-1,-1.296701431E-1
7.274145160E0,-3.986192942E0,4.068732262E-2,-4.503078461E-1
7.292969848E0,-4.054761887E0,-1.432683468E-1,-3.243265152E-1
7.311794535E0,-3.621552229E0,-1.108848333E0,2.456121445E-1
7.330619171E0,-3.548585176E0,-1.151576161E0,4.829282761E-1
7.349443858E0,-3.997735500E0,-7.970658541E-1,4.415092468E-1
7.368268546E0,-4.237514019E0,-9.829632044E-1,-1.315498352E-1
7.387093233E0,-4.139871597E0,-9.833368063E-1,-5.809116364E-1
7.405917869E0,-3.501029491E0,-7.296526432E-1,-5.730667114E-1
7.424742556E0,-2.590572834E0,-4.463090897E-1,-6.206293106E-1
7.443567244E0,-2.188093185E0,-2.382183075E-2,-7.272815704E-1
7.462391931E0,-1.879814625E0,1.254277229E-1,-6.886587143E-1
7.481216567E0,-1.480918884E0,9.034013748E-2,-6.587247849E-1
7.500041254E0,-1.134938478E0,8.208298683E-2,-6.995000839E-1
7.518865942E0,-7.772612572E-1,3.673028946E-1,-1.001516342E0
7.537690629E0,1.833689213E-2,1.973018646E-1,-1.108594894E0
7.556515264E0,1.256408215E0,-1.020631790E-1,-7.638225555E-1
7.575339952E0,2.536236525E0,-2.588415146E-1,-1.677007675E-1
7.594164639E0,3.368280411E0,2.713990211E-2,6.639146805E-1
7.612989327E0,3.142107010E0,8.961806297E-1,1.809592247E0
7.631813962E0,2.235110044E0,8.700511456E-1,2.388488770E0
7.650638650E0,1.093385458E0,-3.073396683E-1,1.641576767E0
7.669463337E0,-2.084133625E-1,-1.911418676E0,1.676864624E-1
7.688274900E0,-1.596428633E0,-2.604382753E0,-1.434552670E0
7.707112712E0,-2.083016157E0,-2.434262276E0,-2.445372105E0
7.725937348E0,-1.403558731E0,-1.572239399E0,-2.317956448E0
7.744762035E0,-7.974586487E-1,-2.505159378E-1,-1.767254829E0
7.763586723E0,-7.388403416E-1,5.133342743E-1,-1.629567623E0
7.782411410E0,-8.995809555E-1,2.985715866E-1,-1.832748413E0
7.801236098E0,-1.225169897E0,2.417900562E-1,-2.287381172E0
7.820060785E0,-1.974875689E0,1.134288311E0,-2.424961090E0
7.838885421E0,-2.343345642E0,1.496970654E0,-2.253372669E0
7.857710108E0,-2.442924023E0,1.657213688E0,-2.227838993E0
7.876534796E0,-2.727292299E0,1.706260920E0,-1.769119263E0
7.895359483E0,-2.854480028E0,1.976000786E0,-9.205822945E-1
7.914184171E0,-3.095096827E0,2.497304916E0,-6.044197083E-2
7.933008858E0,-3.247187853E0,2.169749975E0,-2.095642090E-1
7.951833546E0,-3.292571783E0,2.018327951E0,-9.952111244E-1
7.970658181E0,-3.087830305E0,2.758324146E0,-1.247238636E0
7.989482869E0,-2.247566462E0,3.543897152E0,-8.373293877E-1
8.008307556E0,-1.456927776E0,3.397220373E0,-3.371086121E-1
8.027132244E0,-8.071534634E-1,2.644078970E0,-4.313783646E-1
8.045956931E0,-2.412717342E-1,1.944594622E0,-6.715860367E-1
8.064781619E0,3.866543770E-1,2.213017702E0,-4.406785965E-1
8.083606254E0,8.890922070E-1,2.655201197E0,1.648607254E-1
8.102430942E0,1.061682940E0,2.447594404E0,3.329248428E-1
8.121255629E0,1.214264393E0,2.059076071E0,2.438488007E-1
8.140080317E0,1.244566679E0,2.431183577E0,2.164392471E-1
8.158905004E0,8.905236721E-1,2.879463434E0,-3.494262695E-2
8.177729692E0,3.035209179E-1,2.461961746E0,-1.160340309E0
8.196554379E0,4.459872246E-1,1.502141953E0,-2.393730164E0
8.215379067E0,1.074170113E0,1.507909298E0,-2.850253105E0
8.234203702E0,1.117560744E0,2.897226810E0,-2.620680809E0
8.253028389E0,-8.404493332E-3,3.708488941E0,-3.066830635E0
8.271853077E0,1.094937563E0,2.920792580E0,-4.449111462E0
8.290677764E0,3.727771759E0,2.360061646E0,-2.950055599E0
8.309489327E0,3.958247185E0,2.404512882E0,-6.135778427E-1
8.328327139E0,3.716331720E0,2.448545933E0,5.459327698E-1
8.347151827E0,3.611988068E0,2.306241274E0,1.034491539E0
8.365976514E0,2.906204462E0,1.752869844E0,1.268996239E0
8.384801150E0,2.232878923E0,1.642475128E0,1.746567726E0
8.403625837E0,1.175992012E0,2.854919434E0,2.076851845E0
8.422437400E0,-8.975732327E-1,1.486044407E0,1.439982414E0
8.441275212E0,-8.358685970E-1,7.007694244E-1,4.135704041E-1
8.460099900E0,1.263204455E0,1.869828224E0,1.264870644E0
8.478911462E0,3.440280199E0,2.365260124E0,2.288914680E0
8.497749275E0,2.794161320E0,1.904090405E0,1.998251915E0
8.516573962E0,2.728094339E0,9.967727661E-1,1.127455711E0
8.535385525E0,3.738888502E0,-1.105674028E0,1.836926460E0
8.554223337E0,3.982684135E0,-2.544622660E0,1.303409100E0
8.573048025E0,3.206697226E0,-2.444958687E-1,1.853836060E0
8.591872712E0,3.039027929E0,2.046686649E0,3.142765999E0
8.610697400E0,4.274839401E0,2.014444351E0,1.515413284E0
8.629522087E0,6.333413124E0,1.692262650E0,5.556917191E-2
8.648333650E0,8.761133194E0,1.813917160E0,1.360115051E0
8.667171462E0,8.648562431E0,9.127616882E-1,2.283210278E0
8.685996150E0,5.793260574E0,3.061997414E0,1.783103466E0
8.704807712E0,8.666334152E-1,8.443655014E0,-1.686673164E-1
8.723645525E0,-3.396941900E0,8.666406631E0,-3.408135414E0
8.742470212E0,-4.435468674E0,6.023951054E0,-4.387777328E0
8.761281775E0,-2.020628929E0,4.298339367E0,-4.654182911E0
8.780119587E0,2.139196396E0,3.015789032E0,-5.092626572E0
8.798944275E0,4.507287979E0,2.624305725E0,-3.788307667E0
8.817768962E0,4.873952389E0,2.792356968E0,-1.963418484E0
8.836593650E0,3.941946030E0,4.599028587E0,-1.266481876E0
8.855418337E0,3.369933605E0,5.057629108E0,-4.710116386E-1
8.874229900E0,1.408041954E0,4.815578461E0,-9.293823242E-1
8.893067712E0,-2.084313393E0,4.135647774E0,-1.385261059E0
8.911892400E0,-5.554373264E0,2.565063000E0,-1.624957561E0
8.930704014E0,-6.613164902E0,5.876889229E-1,-9.842567444E-1
8.949541775E0,-5.555053711E0,1.381320953E-1,9.868144989E-2
8.968366514E0,-4.261797905E0,4.631786346E-1,1.107827187E0
8.987191202E0,-3.368942976E0,7.587013245E-1,9.667491913E-1
9.006015889E0,-3.128883362E0,-8.337306976E-2,-7.645792961E-1
9.024840577E0,-3.027585506E0,-4.417805672E-1,-2.397602558E0
9.043665264E0,-2.530315876E0,-3.769350052E-1,-3.274721146E0
9.062490004E0,-1.577784061E0,1.348013878E-1,-3.097550869E0
9.081314692E0,-5.200524926E-1,9.233994484E-1,-2.719495296E0
9.100139379E0,6.246412396E-1,1.034990788E0,-2.329079151E0
9.118964067E0,1.158335090E0,1.486201763E0,-2.054046631E0
9.137788754E0,1.033069611E0,1.924201488E0,-2.480340004E0
9.156613494E0,3.625811934E-1,3.058518410E0,-2.582278728E0
9.175438181E0,-1.534670591E-2,3.313331127E0,-2.347689629E0
9.194262869E0,-4.568374157E-1,3.642616272E0,-1.743058681E0
9.213087556E0,-1.244444251E0,2.281370163E0,-1.118413925E0
9.231912296E0,-2.053287506E0,1.067865372E0,-5.263366699E-1
9.250736983E0,-2.723587513E0,-2.512874603E-1,1.342620850E-1
9.269561671E0,-3.066172600E0,-1.703732014E0,2.668924332E-1
9.288386358E0,-3.351673603E0,-2.507635593E0,1.139883995E-1
9.307211046E0,-3.526976347E0,-2.383250952E0,-9.838724136E-2
9.326035785E0,-3.431878090E0,-2.084059954E0,2.242178917E-1
9.344860473E0,-3.831282616E0,-1.224476814E0,1.513242722E-2
9.363685160E0,-4.547113895E0,-1.454620361E-1,-4.602217674E-1
9.382509848E0,-5.224231243E0,5.174674988E-1,-7.199754715E-1
9.401334535E0,-5.582197189E0,3.341307640E-1,-7.672548294E-1
9.420159275E0,-5.691657066E0,6.272268295E-2,-5.253753662E-1
9.438983962E0,-5.253095627E0,9.005975723E-2,-1.720561981E-1
9.457808650E0,-4.859890461E0,4.867920876E-1,5.691947937E-1
9.476633337E0,-4.301320076E0,3.872885704E-1,1.202353477E0
9.495458077E0,-3.929946423E0,8.429837227E-1,1.365173817E0
9.514282764E0,-3.568499327E0,1.388802528E0,1.023038864E0
9.533107452E0,-2.476718187E0,1.213544846E0,4.896645546E-1
9.551919067E0,-8.550801277E-1,8.050036430E-1,-1.145253181E-1
9.570756879E0,5.398298502E-1,7.938385010E-1,-4.883008003E-1
9.589581567E0,1.403354287E0,8.300900459E-1,-1.016009808E0
9.608406254E0,1.471020818E0,1.004732609E0,-1.682135105E0
9.627230942E0,1.352525949E0,1.022090435E0,-2.005615234E0
9.646055681E0,1.012888908E0,7.258663177E-1,-1.973817348E0
9.664880369E0,7.888425589E-1,9.531927109E-2,-1.774871349E0
9.683705056E0,3.460466862E-1,-5.379867554E-2,-1.405055046E0
9.702529744E0,-3.421061039E-1,-1.052742004E-1,-1.402890205E0
9.721354483E0,-1.201211929E0,8.179025650E-1,-1.132793427E0
9.740179171E0,-2.217646599E0,2.585331917E0,-8.406524658E-1
9.759003858E0,-3.269184589E0,2.065755367E0,-7.045083046E-1
9.777815473E0,-3.679772139E0,-1.331200600E-1,-7.616162300E-1
9.796653285E0,-3.373615026E0,-1.574357748E0,-8.467960358E-1
9.815477973E0,-2.652962446E0,-1.795289755E0,-1.227364063E0
9.834302660E0,-1.855453491E0,-1.002450466E0,-1.893174648E0
9.853127400E0,-1.041983128E0,3.019299507E-1,-2.390822887E0
9.871952087E0,-6.284041405E-1,1.539534092E0,-2.587861538E0
9.890776775E0,-9.572477341E-1,2.751540661E0,-2.781001091E0
9.909601462E0,-1.618925095E0,2.868737936E0,-2.767331600E0
9.928426202E0,-2.489499569E0,1.979403496E0,-2.683271408E0
9.947250889E0,-3.450632095E0,1.941383123E0,-2.590548515E0
9.966075577E0,-4.237038136E0,2.734226942E0,-2.511278152E0
9.984900317E0,-4.068685055E0,3.813699722E0,-2.459898472E0
1.000372500E1,-3.574596882E0,4.891027451E0,-2.216134071E0
1.002254969E1,-2.618418217E0,5.548110962E0,-1.957676411E0
1.004137438E1,-1.299210072E0,5.895584106E0,-1.482577801E0
1.006019912E1,-2.724051476E-1,6.002214432E0,-7.687506676E-1
1.007902381E1,3.032407761E-1,5.777724743E0,-2.323198318E-1
1.009784849E1,3.967337608E-1,5.170946121E0,3.342399597E-1
1.011667323E1,1.881012917E-1,4.559398174E0,7.481827736E-1
1.013549792E1,-4.646530151E-1,4.436399460E0,6.624846458E-1
1.015432261E1,-1.052974701E0,4.171971321E0,3.460884094E-1
1.017314730E1,-1.379112720E0,4.458592892E0,1.914095879E-1
1.019197204E1,-1.620620728E0,4.452040195E0,4.763975143E-1
1.021079672E1,-1.693401337E-1,3.889897108E0,2.658939362E-1
1.022960834E1,2.298514843E0,4.032407284E0,9.766159058E-1
1.024844610E1,3.975002050E0,4.257760525E0,1.548295975E0
1.026727084E1,4.646719933E0,4.419957161E0,1.515086174E0
1.028609552E1,5.229820251E0,4.073976994E0,1.707733154E0
1.030492021E1,6.417366982E0,3.018414974E0,1.683268547E0
1.032374495E1,7.033411980E0,2.457125664E0,6.676216125E-1
1.034256964E1,6.055128098E0,3.097280979E0,-7.042732239E-1
1.036139433E1,4.245814800E0,4.111520767E0,-1.839276791E0
1.038021907E1,3.102785349E0,4.428457260E0,-2.955428123E0
1.039904375E1,3.172219753E0,4.379471779E0,-3.436437130E0
1.041786844E1,4.055080891E0,4.137999535E0,-2.774264812E0
1.043669318E1,5.238532066E0,4.199483395E0,-1.766991615E0
1.045551787E1,6.535737038E0,4.183346272E0,-7.887682915E-1
1.047434256E1,7.431990147E0,4.480792046E0,1.160087585E-1
1.049316730E1,8.022093773E0,4.741929054E0,5.738887787E-1
1.051199198E1,8.082306862E0,4.731394291E0,5.259399414E-1
1.053081667E1,7.005676270E0,5.389674187E0,5.767660141E-1
1.054964141E1,5.172075272E0,6.289048672E0,2.757301331E-1
1.056846610E1,3.712255001E0,6.899089813E0,2.372169495E-2
1.058729084E1,2.971765518E0,7.741709709E0,1.470804214E-2
1.060611552E1,2.686371803E0,9.566602707E0,9.141564369E-1
1.062492714E1,1.877250910E0,1.156777382E1,1.615705490E0
1.064376495E1,1.158568144E0,1.218518925E1,1.448721886E0
1.066258964E1,6.836133003E-1,9.768307686E0,1.705761909E0
1.068140125E1,-1.889491558E0,6.897031784E0,1.448529720E0
1.070023907E1,-6.501526833E0,6.536630630E0,-6.735577583E-1
1.071906381E1,-9.728868484E0,7.765197277E0,-1.658478260E0
1.073787542E1,-8.177352905E0,6.225539207E0,-1.643040180E0
1.075671323E1,-5.921299934E0,3.398146629E0,-9.476256371E-1
1.077553792E1,-4.813265800E0,8.455834389E-1,-1.216557026E0
1.079434954E1,-4.333152771E0,-1.325774908E0,-1.977228642E0
1.081318735E1,-3.880453348E0,-2.686550617E0,-3.344493866E0
1.083201209E1,-3.783902168E0,-2.514969826E0,-4.510022163E0
1.085083678E1,-4.041278839E0,-1.698841095E0,-5.537539482E0
1.086966151E1,-3.886511326E0,-1.064899445E0,-6.056144238E0
1.088848620E1,-3.322791100E0,-4.601902962E-1,-5.424481392E0
1.090731094E1,-2.564655304E0,8.990192413E-2,-4.365319729E0
1.092613563E1,-2.370170832E0,1.081297398E0,-3.353384495E0
1.094496037E1,-2.681898117E0,1.238670349E0,-2.565620422E0
1.096378506E1,-3.457593203E0,9.678602219E-2,-1.972077370E0
1.098260980E1,-4.109402657E0,-9.851963520E-1,-1.158695698E0
1.100143448E1,-3.958215952E0,-1.300475121E0,1.169338226E-1
1.102025922E1,-3.626933336E0,-6.219940186E-1,1.656897545E0
1.103908396E1,-3.517079353E0,-1.210317612E-1,2.226520061E0
1.105790865E1,-3.642627478E0,-2.172799110E-1,2.000040054E0
1.107673339E1,-3.910631657E0,-9.801864624E-2,9.504485130E-1
1.109555808E1,-3.919229984E0,3.044133186E-1,9.489536285E-3
1.111438282E1,-3.586952209E0,9.535207748E-1,-8.544654846E-1
1.113320750E1,-3.007615089E0,1.271829128E0,-1.071639538E0
1.115203224E1,-1.696076870E0,1.168028355E0,-1.122190475E0
1.117085693E1,-3.218412399E-1,1.114303112E0,-1.076978683E0
1.118968167E1,8.681113720E-1,1.092134953E0,-1.006830215E0
1.120850636E1,1.924823761E0,5.318255424E-1,-8.293266296E-1
1.122733110E1,2.632610083E0,-1.669692993E-2,-7.741932869E-1
1.124615584E1,3.016155243E0,-1.065802574E-1,-8.376121521E-1
1.126498052E1,3.280892849E0,-1.331229210E-1,-1.009533405E0
1.128380526E1,3.598356485E0,1.759266853E-1,-9.431538582E-1
1.130262995E1,3.966362476E0,7.160935402E-1,-9.530649185E-1
1.132145469E1,3.943342447E0,1.124512196E0,-8.649406433E-1
1.134027938E1,3.903523922E0,1.506749630E0,-9.141831398E-1
1.135910412E1,3.743282795E0,2.190765381E0,-6.862664223E-1
1.137792886E1,3.667354345E0,3.071954250E0,-2.229332924E-1
1.139675355E1,3.292152405E0,3.031902313E0,4.171590805E-1
1.141557828E1,2.547220469E0,2.224509716E0,7.154278755E-1
1.143440302E1,1.755842924E0,1.451539040E0,1.101168633E0
1.145322771E1,5.485923290E-1,1.027381897E0,1.451679707E0
1.147205245E1,-6.811363697E-1,8.609213829E-1,1.642217159E0
1.149087714E1,-1.711544275E0,6.298136711E-1,1.787045956E0
1.150970188E1,-2.453891993E0,3.011775017E-1,2.202750206E0
1.152852662E1,-3.328485727E0,2.569003105E-1,2.546006680E0
1.154735136E1,-4.571327686E0,-7.268033028E-1,1.986105442E0
1.156617605E1,-5.569358349E0,-2.239853382E0,1.139794827E0
1.158500078E1,-6.160859108E0,-2.968102694E0,4.109482765E-1
1.160382547E1,-5.891005516E0,-3.395483494E0,-1.892886162E-1
1.162265021E1,-4.854498863E0,-3.579195499E0,-8.066596985E-1
1.164147495E1,-3.698642254E0,-3.411675692E0,-1.195234299E0
1.166029964E1,-2.860828400E0,-3.043559551E0,-1.449727058E0
1.167912438E1,-2.535025120E0,-2.806769371E0,-1.680368900E0
1.169794912E1,-2.864569187E0,-2.173233271E0,-1.747789860E0
1.171677381E1,-3.637395859E0,-1.195241928E0,-1.866095543E0
1.173559855E1,-4.419797897E0,-6.616115570E-1,-2.025420189E0
1.175442329E1,-4.760378838E0,-4.045581818E-2,-1.952570438E0
1.177324797E1,-4.634274006E0,1.104551315E0,-1.619710922E0
1.179207271E1,-4.223948479E0,1.563564301E0,-1.739484787E0
1.181089745E1,-3.884675026E0,1.783910275E0,-1.886695385E0
1.182972214E1,-3.138978004E0,1.798943996E0,-2.378480911E0
1.184854688E1,-1.893395901E0,1.844146252E0,-2.969576836E0
1.186737162E1,-7.146086693E-1,2.380741119E0,-3.426128149E0
1.188619631E1,3.410501480E-1,2.941662312E0,-3.660821676E0
1.190502105E1,1.278493643E0,3.533577442E0,-3.953264713E0
1.192384573E1,1.863191366E0,3.883770466E0,-3.909697771E0
1.194267047E1,2.306965590E0,4.268410206E0,-3.600702524E0
1.196149521E1,3.016486645E0,4.372982025E0,-3.045515537E0
1.198031990E1,4.018923283E0,5.075746059E0,-2.108617306E0
1.199914464E1,5.218116283E0,4.541356564E0,-8.109607697E-1
1.201796938E1,6.955518246E0,3.413649559E0,3.000664711E-1
1.203679407E1,7.887094498E0,2.263255596E0,9.473810196E-1
1.205561881E1,7.419325829E0,2.670692444E0,1.535824776E0
1.207444355E1,6.800994873E0,2.730610847E0,2.119758129E0
1.209326823E1,6.345318317E0,2.527808189E0,2.521749973E0
1.211209297E1,5.735926628E0,2.419360638E0,2.762213707E0
1.213091771E1,5.095352173E0,2.026070595E0,2.795328617E0
1.214974240E1,4.256214142E0,1.836219788E0,2.453187466E0
1.216856714E1,3.356021404E0,1.567454815E0,2.005476475E0
1.218739183E1,2.255077600E0,1.350862503E0,1.437384605E0
1.220621657E1,1.037761211E0,1.422932148E0,1.006555557E0
1.222504131E1,1.727886200E-1,1.261240959E0,8.433804512E-1
1.224386605E1,-2.609777451E-1,1.034403324E0,8.582830429E-1
1.226269073E1,-5.982151031E-1,1.324623108E0,1.039302826E0
1.228151547E1,-6.030101776E-1,1.178612709E0,9.515070915E-1
1.230034016E1,-9.249362946E-1,1.226649284E0,4.439058304E-1
1.231916490E1,-1.516705275E0,1.234752655E0,-4.202876091E-1
1.233798964E1,-2.559882879E0,1.299138546E0,-8.766350746E-1
1.235681438E1,-3.680275679E0,1.549317837E0,-1.310671329E0
1.237563907E1,-4.019098759E0,8.278489113E-1,-1.732419014E0
1.239446381E1,-3.785465240E0,-5.678272247E-2,-1.586260796E0
1.241328849E1,-3.411755085E0,-7.725634575E-1,-1.481720924E0
1.243211323E1,-3.452970505E0,-1.225127220E0,-1.643207073E0
1.245093797E1,-3.804408073E0,-1.440298080E0,-1.680575371E0
1.246976271E1,-3.627577305E0,-1.101702213E0,-2.370870113E0
1.248858740E1,-3.105810642E0,-1.249024868E0,-2.703721523E0
1.250741214E1,-2.569386959E0,-1.101553917E0,-2.146753311E0
1.252623688E1,-1.161048651E0,-1.202045918E0,-8.390560150E-1
1.254504849E1,9.228143692E-1,-1.305033207E0,2.135558128E-1
1.256388631E1,3.163511753E0,-8.793501854E-1,1.482320309E0
1.258271105E1,4.521301270E0,-5.172581673E-1,2.310653210E0
1.260153579E1,3.715999603E0,1.118865013E-1,2.227478504E0
1.262036047E1,1.994640827E0,5.497145653E-1,1.892751694E0
1.263918521E1,1.180398703E0,1.005744457E0,1.669979572E0
1.265800995E1,7.996041179E-1,1.262241364E0,1.405443668E0
1.267683464E1,7.984840870E-2,1.382485867E0,1.408506870E0
1.269565938E1,-1.112186909E0,1.346145630E0,1.849791527E0
1.271447099E1,-3.429018497E0,1.082725048E0,1.552971840E0
1.273330886E1,-4.544519424E0,6.866335869E-1,9.712491035E-1
1.275213355E1,-4.465540886E0,4.958071709E-1,9.086155891E-1
1.277095828E1,-4.067058086E0,6.824779510E-1,5.874490738E-1
1.278978302E1,-3.966691494E0,1.468840122E0,8.373956680E-1
1.280860776E1,-4.453101158E0,1.601812363E0,1.280538559E0
1.282741938E1,-6.382201672E0,5.374498367E-1,4.932003021E-1
1.284625719E1,-6.522444725E0,-1.828522682E-1,-4.181346893E-1
1.286508193E1,-4.437397957E0,-1.335039139E-1,2.350492477E-1
1.288389355E1,-1.636916161E0,-9.716742039E-1,1.979141235E-1
1.290273141E1,-9.587088823E-1,-1.720309258E0,-1.066423416E0
1.292155610E1,-7.421974540E-1,-1.581118822E0,-1.819239140E0
1.294038084E1,-1.979516149E-1,-1.098990440E-1,-1.129507542E0
1.295920558E1,2.403528690E-1,1.615193367E0,-1.006202698E-1
1.297803032E1,4.044359326E-1,2.525497913E0,2.462148666E-1
1.299685500E1,4.724302292E-1,2.039822578E0,2.397613525E-1
1.301567974E1,-1.774480343E-1,1.462299347E0,-1.472396851E-1
1.303450448E1,-7.014384270E-1,1.118993759E0,-1.061113358E0
1.305332922E1,-6.716997623E-1,1.210168958E0,-1.352829456E0
1.307215396E1,-3.274147511E-1,1.237462997E0,-9.417915344E-1
1.309097870E1,-4.601209164E-1,8.611805439E-1,-3.729257584E-1
1.310979032E1,-1.188307047E0,-1.961017251E-1,-5.934181213E-1
1.312862813E1,-2.153717518E0,-1.307333946E0,-1.502246380E0
1.314745287E1,-3.262239933E0,-1.978307247E0,-2.497996330E0
1.316626448E1,-4.965480804E0,-2.722940683E0,-2.953715324E0
1.318510235E1,-6.032574177E0,-2.614690542E0,-3.041405201E0
1.320392704E1,-4.420886993E0,-1.942365885E0,-2.805302620E0
1.322273870E1,-2.481941938E0,-6.746017933E-2,-2.215494156E0
1.324157651E1,-1.722821236E0,2.523224592E0,-2.204683304E0
1.326040125E1,-3.368866444E-1,5.153786182E0,-2.302945137E0
1.327921287E1,2.545571804E0,4.700256824E0,-1.432778835E0
1.329805073E1,4.812848568E0,2.680022717E0,-4.507360458E-1
1.331687547E1,5.160674095E0,1.639318109E0,-4.960060120E-2
1.333570016E1,4.924178123E0,1.542489409E0,1.484489441E-2
1.335452490E1,4.446548462E0,1.521796227E0,-3.371744156E-1
1.337334964E1,3.623869658E0,1.287392497E0,-1.620014668E0
1.339216125E1,2.565581799E0,9.894452095E-1,-2.835192204E0
1.341099912E1,9.344208241E-1,9.224805236E-1,-3.990441799E0
1.342982386E1,-9.145159721E-1,2.494328737E0,-4.473740101E0
1.344863547E1,-1.832659721E0,4.230624199E0,-4.111108303E0
1.346747328E1,-2.078272581E0,5.261039257E0,-3.475164413E0
1.348629802E1,1.985185146E-1,4.635633945E0,-2.678628445E0
1.350510969E1,3.281995535E0,3.112193108E0,-1.158876419E-1
1.352394750E1,4.713704109E0,6.493453979E-1,1.384201050E0
1.354277224E1,5.769169331E0,6.294870377E-1,1.207530022E0
1.356158386E1,6.495917797E0,5.604810715E-1,2.826450348E0
1.358042172E1,5.822424412E0,-1.049686670E0,2.574360847E0
1.359924646E1,2.207913876E0,-5.718951225E-1,-2.169822216E0
1.361805808E1,-2.503262758E-1,8.828210831E-2,-4.372167110E0
1.363689594E1,2.449096441E-1,2.570772171E-1,-3.779450893E0
1.365572068E1,1.852043629E0,8.304882050E-1,-1.834836483E0
1.367453230E1,3.071074963E0,1.944377899E0,2.952327728E-1
1.369337011E1,2.792745590E0,3.927382946E0,8.706283569E-1
1.371219485E1,1.925783873E0,6.279284954E0,5.197653770E-1
1.373101959E1,1.044870973E0,5.888906479E0,2.130522728E-1
1.374984433E1,1.673008204E-1,3.786795616E0,-1.217998028E0
1.376866907E1,-8.933647871E-1,3.417264938E0,-3.064678431E0
1.378749381E1,-1.949509621E0,3.832780838E0,-3.431449413E0
1.380631855E1,-1.726975679E0,3.990349770E0,-1.138547897E0
1.382514329E1,9.139261842E-1,3.964862347E0,1.559551716E0
1.384396802E1,2.884644508E0,4.413629055E0,3.274528027E0
1.386279276E1,2.255883932E0,4.885178566E0,3.908030510E0
1.388161750E1,4.098297358E-1,3.548474789E0,3.142231941E0
1.390042912E1,-2.738669872E0,2.019848347E0,1.013976097E0
1.391926698E1,-6.541038036E0,1.422010422E0,-1.361429691E0
1.393809167E1,-7.899144650E0,-4.290161133E-1,-2.390970230E0
1.395690334E1,-6.404758453E0,-2.460260391E-1,-1.274334431E0
1.397574115E1,-4.074483871E0,8.460102081E-1,3.712143898E-1
1.399456594E1,-2.086105347E0,1.609859943E0,1.744709015E0
1.401337756E1,-6.930172443E-3,1.722268105E0,2.452740192E0
1.403221537E1,2.206284046E0,1.055643559E0,2.075115204E0
1.405104011E1,2.399808407E0,1.062736511E0,1.143699169E0
1.406985172E1,-3.773617744E-1,2.245978355E0,-9.230184555E-2
1.408868959E1,-2.765490532E0,8.227643967E-1,-1.703737259E0
1.410751433E1,-4.223688126E0,-1.697622299E0,-3.443769693E0
1.412632599E1,-4.357143879E0,-3.399276257E0,-4.132344246E0
1.414516381E1,-4.493965626E0,-3.637922764E0,-2.403107166E0
1.416398855E1,-4.944953918E0,-2.450104237E0,-1.628856659E0
1.418280016E1,-3.469261646E0,-9.867935181E-1,-8.010673523E-1
1.420163803E1,-1.221849203E0,5.240411758E-1,1.428259850E0
1.422046276E1,2.497633994E-1,1.321614265E0,2.361154556E0
1.423928750E1,1.136070848E0,8.835210800E-1,1.941171169E0
1.425811224E1,1.187711596E0,2.198438644E-1,1.646022797E0
1.427693698E1,6.652148962E-1,-7.049713135E-1,4.117293358E-1
1.429576172E1,-1.948713064E-1,-1.588330746E0,-1.267471313E0
1.431458646E1,-6.567886472E-1,-1.354077339E0,-1.542958736E0
1.433341120E1,-1.741472483E-1,-4.914584160E-1,-4.620246887E-1
1.435222287E1,1.339500904E0,1.023859978E-1,9.486575127E-1
1.437106068E1,2.776672363E0,6.905446053E-1,2.174406052E0
1.438988542E1,2.825510502E0,1.149490833E0,2.401493073E0
1.440869709E1,1.792647004E0,6.856765747E-1,1.234812737E0
1.442753495E1,1.884263396E0,-8.710966110E-1,-1.044473648E0
1.444635964E1,2.856532097E0,-2.087839365E0,-2.320096016E0
1.446518443E1,3.454580307E0,-2.113768339E0,-1.730718613E0
1.448400917E1,3.225273609E0,-1.425745487E0,-2.371973991E-1
1.450283391E1,3.176640034E0,-6.938362122E-2,1.309259415E0
1.452165865E1,2.423654079E0,1.101094723E0,2.114470482E0
1.454048339E1,1.134394646E0,2.318662643E0,2.004685402E0
1.455930813E1,2.778830528E-1,2.522287846E0,1.355616570E0
1.457813287E1,-2.023637295E-1,1.358187675E0,8.857793808E-1
1.459695761E1,-9.682427645E-1,9.062671661E-2,3.206110001E-1
1.461578235E1,-1.728526592E0,-8.544416428E-1,-3.091855049E-1
1.463460709E1,-2.465457678E0,-1.768309355E0,-9.038081169E-1
1.465343183E1,-2.816910267E0,-2.203305244E0,-8.719964027E-1
1.467225657E1,-3.024526834E0,-1.561537027E0,1.079311371E-1
1.469108131E1,-2.744153500E0,-1.161104441E0,6.847867966E-1
1.470990610E1,-2.134105682E0,-1.626394987E0,3.087491989E-1
1.472873084E1,-2.124005795E0,-1.388411522E0,-4.627242088E-1
1.474755558E1,-2.596671820E0,-8.148255348E-1,-1.400582314E0
1.476638032E1,-2.670616627E0,-6.865434647E-1,-1.755067825E0
1.478520506E1,-2.187461138E0,-9.228425026E-1,-1.722819805E0
1.480402980E1,-1.764819980E0,-9.850721359E-1,-1.464605808E0
1.482285454E1,-1.584689856E0,-7.569780350E-1,-9.500689507E-1
1.484167928E1,-1.635658622E0,-2.421936989E-1,-3.267922401E-1
1.486050401E1,-1.557092309E0,6.893110275E-2,2.350330353E-1
1.487932881E1,-1.216902852E0,-6.068325043E-2,5.818748474E-1
1.489815355E1,-7.493292093E-1,-5.164031982E-1,6.250257492E-1
1.491697828E1,-5.016163588E-1,-5.133328438E-1,3.723492622E-1
1.493580302E1,-3.253750801E-1,-1.212248802E-1,-1.085257530E-1
1.495462776E1,2.658269405E-1,-2.539730072E-2,-5.622119904E-1
1.497345250E1,1.098516941E0,6.194095612E-1,-1.028841019E0
1.499227724E1,1.996536493E0,7.014980316E-1,-1.395730972E0
1.501110204E1,2.699722767E0,9.106588364E-2,-1.735118866E0
1.502992678E1,2.911786079E0,1.169905663E-1,-1.990603924E0
1.504875151E1,2.929429531E0,6.424565315E-1,-1.737779140E0
1.506757625E1,2.837212086E0,1.305434227E0,-6.783833504E-1
1.508640099E1,2.821728230E0,1.910485744E0,2.148098946E-1
1.510522573E1,2.520820141E0,1.858899117E0,4.741015434E-1
1.512405053E1,1.511634350E0,1.923306465E0,-2.835369110E-2
1.514287526E1,3.366552591E-1,1.748761654E0,-6.537818909E-1
1.516170000E1,-2.868502140E-1,1.449315548E0,-9.286341667E-1
1.518052474E1,-8.142228127E-1,1.160099030E0,-1.059466839E0
1.519934948E1,-9.720320702E-1,2.269039154E-1,-1.056439400E0
1.521817422E1,-7.931454182E-1,-7.129402161E-1,-1.101921082E0
1.523699901E1,-9.450585842E-1,-1.179693222E0,-9.228386879E-1
1.525582375E1,-1.095893145E0,-1.152400970E0,-6.552753448E-1
1.527464849E1,-1.115680218E0,-1.103987217E0,-3.654551506E-1
1.529347323E1,-1.107211471E0,-9.200320244E-1,-2.090888023E-1
1.531229797E1,-1.255181789E0,-2.775430679E-1,-2.179098129E-2
1.533112276E1,-1.411981821E0,1.399393082E-1,3.151865005E-1
1.534994750E1,-1.515133381E0,3.041172028E-1,6.416907310E-1
1.536877224E1,-1.641075611E0,4.318938255E-1,1.011619568E0
1.538759698E1,-1.753674150E0,6.146798134E-1,1.471028328E0
1.540642178E1,-1.948189259E0,4.460716248E-1,1.445078373E0
1.542524651E1,-1.905182242E0,-8.607864380E-2,1.217600346E0
1.544407125E1,-1.741259098E0,-5.416707993E-1,1.017983913E0
1.546289599E1,-1.445685267E0,-7.311506271E-1,8.118243217E-1
1.548172073E1,-1.123843551E0,-6.998729706E-1,3.608798981E-1
1.550054553E1,-8.544069529E-1,-5.432534218E-1,-1.129999161E-1
1.551937026E1,-5.383259058E-1,-1.030092239E-1,-2.842831612E-1
1.553819500E1,-2.110302448E-2,1.946458817E-1,-2.086153030E-1
1.555701974E1,7.223390341E-1,1.370468140E-1,2.857513428E-1
1.557584454E1,1.163324714E0,2.635917664E-1,6.026577950E-1
1.559466928E1,1.177360058E0,6.961708069E-1,7.580671310E-1
1.561349401E1,1.208413839E0,1.036821842E0,8.065772057E-1
1.563231875E1,1.483467340E0,6.666016579E-1,5.778503418E-1
1.565114355E1,1.971101522E0,8.394527435E-2,4.916124344E-1
1.566996829E1,2.531638622E0,-1.791124344E-1,9.241471291E-1
1.568879302E1,2.945734024E0,4.819769859E-1,1.250824451E0
1.570761782E1,3.300113678E0,7.555980682E-1,1.891537666E0
1.572644256E1,3.082510233E0,3.678798676E-1,2.077552795E0
1.574526730E1,2.206841946E0,4.859881401E-1,1.722099304E0
1.576409209E1,1.024162054E0,1.381919384E0,1.673790932E0
1.578291683E1,6.240553856E-1,5.634784698E-2,1.885447979E0
1.580174157E1,9.903188944E-1,-2.058763027E0,1.717148304E0
1.582056631E1,4.592705965E-1,-3.163229942E0,1.420480251E0
1.583939110E1,-5.801088810E-1,-2.537033558E0,1.099711895E0
1.585821584E1,-1.328084230E0,-9.591035843E-1,1.043855190E0
1.587704058E1,-1.476346254E0,3.878407478E-1,1.316979408E0
1.589586537E1,-1.281822681E0,4.465947151E-1,1.545233250E0
1.591469011E1,-1.466440916E0,1.167941093E-1,1.345061779E0
1.593351485E1,-1.886989117E0,-4.073967934E-1,7.438836098E-1
1.595233964E1,-2.081058502E0,-8.191757202E-1,2.257294655E-1
1.597116438E1,-2.139969349E0,-6.124787331E-1,7.022142410E-2
1.598998912E1,-1.786824942E0,-6.698126793E-1,2.067975998E-1
1.600881391E1,-9.939835072E-1,-6.458935738E-1,5.810470581E-1
1.602763865E1,-6.581118107E-1,-7.033157349E-2,9.427456856E-1
1.604646339E1,-7.895443439E-1,-4.484367371E-2,7.807922363E-1
1.606528818E1,-1.205640316E0,-2.179055214E-1,4.986610413E-1
1.608411292E1,-1.777492523E0,-4.142694473E-1,1.926679611E-1
1.610293766E1,-2.409923792E0,-9.044857025E-1,-4.009070396E-1
1.612176245E1,-3.003533125E0,-1.318170547E0,-1.203185081E0
1.614058719E1,-3.248374939E0,-1.381184578E0,-1.828000069E0
1.615941198E1,-3.264187336E0,-1.154270172E0,-2.315555096E0
1.617823672E1,-3.157700300E0,-7.233963013E-1,-2.724415302E0
1.619706146E1,-2.873531103E0,-2.037181854E-1,-2.829938412E0
1.621588625E1,-2.482019663E0,-2.356767654E-1,-2.715705872E0
1.623471099E1,-1.938493252E0,-5.627613068E-1,-2.991710186E0
1.625353573E1,-1.588990688E0,-2.852349281E-1,-3.285482407E0
1.627236052E1,-1.404262543E0,7.298388481E-1,-3.336005688E0
1.629118526E1,-1.244078875E0,1.946077347E0,-2.963916779E0
1.631001006E1,-1.024702072E0,3.101889133E0,-2.508920670E0
1.632883480E1,-8.072166443E-1,3.607120037E0,-2.123921871E0
1.634765954E1,-5.258808136E-1,3.070352554E0,-1.865801811E0
1.636648433E1,-6.444153786E-1,2.356536388E0,-1.543350697E0
1.638530907E1,-1.020268440E0,2.270120144E0,-1.558378220E0
1.640413386E1,-1.127417088E0,2.230318069E0,-1.512351036E0
1.642295860E1,-7.442741394E-1,2.086589813E0,-1.461349010E0
1.644178334E1,2.708292007E-2,2.076289654E0,-1.451665878E0
1.646060813E1,1.148054123E0,2.326241493E0,-1.550217628E0
1.647943287E1,2.077060699E0,2.938440800E0,-1.362210274E0
1.649825766E1,2.587700367E0,3.539098740E0,-1.307988644E0
1.651708240E1,3.063978195E0,3.284608364E0,-1.216716766E0
1.653590714E1,4.263722897E0,2.582656860E0,-5.202727318E-1
1.655473193E1,5.430491924E0,1.708380222E0,5.615639687E-1
1.657355667E1,5.606020451E0,1.512242794E0,1.453928947E0
1.659238146E1,5.166939259E0,1.389353275E0,2.187032700E0
1.661120620E1,4.629864693E0,1.002239227E0,2.453575134E0
1.663003099E1,3.881725788E0,1.028690338E0,2.399284363E0
1.664885573E1,2.781467915E0,1.534687519E0,2.144944191E0
1.666768052E1,2.053932905E0,1.553909779E0,1.755074024E0
1.668650526E1,1.645543575E0,1.306145668E0,1.545475960E0
1.670533006E1,1.175297022E0,1.065793037E0,1.045601368E0
1.672415480E1,8.631827831E-1,4.882874489E-1,2.016506195E-1
1.674297959E1,1.050421953E0,5.370631218E-1,-6.281852722E-1
1.676180433E1,1.415185452E0,1.196298122E0,-1.040323257E0
1.678062912E1,2.247005939E0,2.217128754E0,-1.296303272E0
1.679945386E1,3.381043196E0,3.121712685E0,-1.507850647E0
1.681827860E1,4.093803406E0,3.999753475E0,-1.635401249E0
1.683710339E1,4.241034508E0,4.136923313E0,-2.082727432E0
1.685592813E1,3.692847490E0,3.989951134E0,-2.577539921E0
1.687475292E1,2.611669302E0,4.080695152E0,-2.530952930E0
1.689357766E1,1.508717060E0,3.686670780E0,-2.060159206E0
1.691240245E1,5.952568054E-1,3.286597729E0,-1.444275379E0
1.693122719E1,-3.724203110E-1,2.653247833E0,-1.070555210E0
1.695005198E1,-1.449993372E0,2.652678967E0,-9.914689064E-1
1.696887672E1,-2.438489676E0,2.105362415E0,-6.512413025E-1
1.698770151E1,-3.035768270E0,2.065115929E0,-3.320240974E-1
1.700652631E1,-3.412501812E0,2.274261475E0,5.333900452E-3
1.702535105E1,-4.078048706E0,1.452406406E0,4.981994629E-2
1.704417584E1,-4.521800041E0,-3.194799423E-1,-3.239235878E-1
1.706298745E1,-4.851484299E0,-2.053081989E0,-6.665186882E-1
1.708182537E1,-4.676618099E0,-3.610052347E0,-1.056870937E0
1.710065011E1,-4.368721962E0,-3.640353680E0,-1.041147232E0
1.711947490E1,-3.794370651E0,-2.980445862E0,-8.515086174E-1
1.713829964E1,-3.500418186E0,-1.996185780E0,-8.524017334E-1
1.715712443E1,-3.904901981E0,-1.098875523E0,-1.005636215E0
1.717594922E1,-4.519716263E0,-1.036792278E0,-1.431217670E0
1.719477396E1,-5.017992973E0,-1.653803825E0,-1.849352837E0
1.721359875E1,-5.535884380E0,-1.915813923E0,-1.852586269E0
1.723242349E1,-5.792716980E0,-9.335141182E-1,-1.325463772E0
1.725124829E1,-5.943483829E0,1.459155083E-1,-4.605102539E-1
1.727007303E1,-5.538596153E0,6.392507553E-1,-3.275976181E-1
1.728889782E1,-4.870588303E0,8.457703590E-1,-4.148955345E-1
1.730772256E1,-3.854515314E0,8.446693420E-1,-4.522604942E-1
1.732654735E1,-2.613783360E0,-5.102872849E-2,-4.940085411E-1
1.734535901E1,-1.141823769E0,-9.946885109E-1,-9.654574394E-1
1.736419688E1,1.116611958E-1,-1.147609234E0,-1.180615902E0
1.738302167E1,1.116228819E0,-1.395058632E-1,-1.208230495E0
1.740184641E1,1.406110048E0,1.199306488E0,-9.521923065E-1
1.742067120E1,1.202767611E0,2.272518635E0,-1.053045750E0
1.743949599E1,7.996287346E-1,2.365376472E0,-1.178965092E0
1.745832073E1,5.541694164E-1,1.640595913E0,-1.339087963E0
1.747714552E1,2.001824379E-1,1.122492790E0,-1.532616138E0
1.749597026E1,-4.278912544E-1,1.105005741E0,-1.829245567E0
1.751479506E1,-6.767778397E-1,8.871893883E-1,-1.938667774E0
1.753361980E1,-9.967803955E-2,6.024556160E-1,-1.876518726E0
1.755244459E1,9.459309578E-1,9.509902000E-1,-1.573473930E0
1.757126938E1,1.817807436E0,2.084975243E0,-9.585199356E-1
1.759009412E1,2.465645075E0,2.976573944E0,-2.338156700E-1
1.760891891E1,3.166393757E0,3.644145966E0,4.553542137E-1
1.762774370E1,3.359833241E0,3.698949814E0,7.456426620E-1
1.764656844E1,3.450558186E0,3.087215900E0,6.568541527E-1
1.766539323E1,3.829130650E0,2.101785183E0,8.670206070E-1
1.768421797E1,3.937798977E0,1.093051910E0,1.104524136E0
1.770304276E1,3.963954926E0,1.587319374E-1,1.122570515E0
1.772186756E1,3.901680470E0,4.400706291E-1,1.366810322E0
1.774069230E1,3.832292557E0,1.145719528E0,1.435374260E0
1.775951709E1,3.591124296E0,1.256812572E0,1.087303638E0
1.777834188E1,3.357809544E0,7.823681831E-1,5.891542435E-1
1.779716662E1,3.169266939E0,4.544091225E-1,9.351301193E-2
1.781599141E1,2.582649946E0,9.683232307E-1,-4.358739853E-1
1.783482350E1,1.821205378E0,1.077311993E0,-8.687849045E-1
1.785363511E1,1.263325453E0,2.236535072E0,-1.216889858E0
1.787247303E1,6.186833382E-1,3.887465477E0,-1.337557793E0
1.789129777E1,2.788650990E-1,4.907261848E0,-1.458655357E0
1.791012256E1,8.870244026E-2,5.083701611E0,-1.577169895E0
1.792894735E1,8.020615578E-2,4.402665138E0,-1.416346073E0
1.794777214E1,-5.170657635E-1,4.064083576E0,-1.509824276E0
1.796659688E1,-1.782985687E0,3.982048035E0,-1.949648380E0
1.798542167E1,-2.770337105E0,3.672704697E0,-2.289055109E0
1.800424646E1,-2.867530584E0,2.687996864E0,-2.183048725E0
1.802307120E1,-2.607503176E0,1.966567516E0,-1.850815773E0
1.804189600E1,-2.602589607E0,1.548470974E0,-1.712717056E0
1.806072079E1,-2.701969862E0,9.475955963E-1,-1.993439198E0
1.807954553E1,-2.893784285E0,4.024038315E-1,-2.249629498E0
1.809837032E1,-2.825064421E0,-7.582116127E-1,-2.598926783E0
1.811719511E1,-2.682233095E0,-1.211941242E0,-2.937108278E0
1.813601990E1,-2.331400156E0,-1.641429901E0,-2.801450253E0
1.815484464E1,-1.800830841E0,-1.818948269E0,-2.654345274E0
1.817366943E1,-9.648418427E-1,-1.884457111E0,-2.151629448E0
1.819249422E1,-3.702261448E-1,-1.286102772E0,-1.624888420E0
1.821131896E1,-2.607219219E-1,-1.164892197E0,-1.132055283E0
1.823014376E1,-5.935595036E-1,-1.452197075E0,-1.076441765E0
1.824896855E1,-1.087261200E0,-1.561793327E0,-1.029955387E0
1.826779329E1,-1.358943701E0,-1.368226051E0,-7.324028015E-1
1.828661808E1,-1.416406631E0,-1.118250370E0,-1.738672256E-1
1.830544287E1,-1.137437582E0,-1.134185314E0,4.758996964E-1
1.832426761E1,-9.281659126E-1,-1.475816727E0,1.122615337E0
1.834309240E1,-1.415538311E0,-2.036597729E0,1.239941597E0
1.836191719E1,-2.357988596E0,-1.836153984E0,1.105349541E0
1.838074199E1,-3.134212017E0,-1.045725346E0,1.271847248E0
1.839956672E1,-3.408783674E0,-3.959617615E-1,1.659954548E0
1.841839152E1,-3.203715563E0,-4.654407501E-3,2.065443993E0
1.843721631E1,-2.685998201E0,6.954479218E-2,2.425159454E0
1.845604110E1,-2.089074373E0,1.492357254E-2,2.545277596E0
1.847486584E1,-1.496958971E0,-2.579245567E-1,2.478178024E0
1.849369063E1,-9.471981525E-1,-2.542314529E-1,2.052244186E0
1.851251542E1,-4.629638195E-1,-5.482864380E-2,1.572347164E0
1.853134022E1,1.791490316E-1,-6.852579117E-2,1.114503860E0
1.855016495E1,7.494535446E-1,-4.404687881E-1,4.494009018E-1
1.856898975E1,1.248440742E0,-1.062538147E0,-3.748054504E-1
1.858781454E1,1.796835899E0,-1.352141380E0,-9.456272125E-1
1.860663933E1,2.569597006E0,-1.111438274E0,-1.103309631E0
1.862546407E1,3.279939175E0,-7.853751183E-1,-9.771695137E-1
1.864428886E1,3.656577826E0,-5.700030327E-1,-8.554000854E-1
1.866311365E1,3.693145275E0,-4.613223076E-1,-7.163167000E-1
1.868193844E1,3.467030764E0,-2.418537140E-1,-7.634234428E-1
1.870076324E1,3.002694368E0,5.209274292E-1,-6.196384430E-1
1.871958798E1,2.609563828E0,1.323160172E0,-5.957269669E-2
1.873841277E1,2.092735291E0,1.351420879E0,7.383356094E-1
1.875723756E1,1.206375837E0,8.312444687E-1,1.125527859E0
1.877606235E1,-3.083699942E-1,1.114368439E0,9.277253151E-1
1.879488714E1,-1.765635014E0,1.969703674E0,5.728888512E-1
1.881371193E1,-2.600539207E0,2.723198891E0,5.364689827E-1
1.883253667E1,-2.691016912E0,1.595394611E0,9.050626755E-1
1.885136146E1,-2.301118135E0,-7.294569016E-1,1.020366669E0
1.887017313E1,-1.962581873E0,-2.898928642E0,9.146246910E-1
1.888901105E1,-1.803955317E0,-3.839807510E0,5.265789032E-1
1.890783584E1,-1.812277555E0,-3.089530468E0,1.141190529E-1
1.892666063E1,-1.302049637E0,-1.861597061E0,3.554534912E-2
1.894548537E1,-4.661850929E-1,-8.752374649E-1,2.733578682E-1
1.896431016E1,2.961082458E-1,-1.910676956E-1,4.618396759E-1
1.898313495E1,8.104615211E-1,-4.838991165E-2,4.646563530E-1
1.900195975E1,8.603022099E-1,-2.316889763E-1,3.258867264E-1
1.902078454E1,7.003633976E-1,-5.698122978E-1,1.539249420E-1
1.903960933E1,3.990399837E-1,-5.517034531E-1,5.119657516E-2
1.905843407E1,1.428875923E-1,-2.905263901E-1,1.007552147E-1
1.907725886E1,4.524781704E-1,-2.013311386E-1,2.797589302E-1
1.909608365E1,1.138186693E0,-3.475117683E-1,6.389222145E-1
1.911490844E1,1.776808977E0,-1.077365875E-2,8.336906433E-1
1.913373324E1,1.970851183E0,1.200897217E0,6.702427864E-1
1.915255803E1,1.809222698E0,2.026684284E0,7.625102997E-2
1.917138282E1,1.741802454E0,1.939217567E0,-5.147628784E-1
1.919020756E1,1.944657922E0,9.038205147E-1,-9.390110970E-1
1.920903235E1,2.254920244E0,-5.118007660E-1,-1.343963861E0
1.922785714E1,2.257970095E0,-6.718635559E-1,-1.578905821E0
1.924668193E1,2.016669750E0,9.189319611E-2,-1.656545162E0
1.926550672E1,1.692917347E0,1.461080551E0,-1.744634628E0
1.928433152E1,1.315390110E0,2.440861702E0,-1.727332354E0
1.930315631E1,1.320057392E0,2.216093063E0,-1.646105766E0
1.932198110E1,1.099753380E0,1.722129345E0,-1.445210218E0
1.934080589E1,2.513349056E-1,1.413275719E0,-1.075082302E0
1.935963068E1,-1.224416733E0,1.206035614E0,-6.877079010E-1
1.937844235E1,-2.666612625E0,2.658510208E-1,-4.032540321E-1
1.939728022E1,-3.749818325E0,-1.336050034E0,-6.940841675E-2
1.941610501E1,-4.474497318E0,-2.635062218E0,1.826910973E-1
1.943492980E1,-4.884985924E0,-2.489677906E0,3.439989090E-1
1.945375459E1,-4.810739517E0,-1.535148144E0,4.914412498E-1
1.947257938E1,-4.167970657E0,-2.589139938E-1,1.008457184E0
1.949140417E1,-3.391123295E0,-1.155939102E-1,1.490068436E0
1.951022896E1,-2.636204720E0,-5.480756760E-1,1.536366940E0
1.952905376E1,-2.037386894E0,-5.478763580E-1,1.354265213E0
1.954787850E1,-1.826017857E0,-4.683980942E-1,8.893060684E-1
1.956670329E1,-1.642533302E0,-6.926355362E-1,3.551187515E-1
1.958552808E1,-1.347435236E0,-9.567413330E-1,7.768821716E-2
1.960435287E1,-1.130495787E0,-1.097559452E0,-2.939686775E-1
1.962317766E1,-9.503383636E-1,-1.039691448E0,-7.574229240E-1
1.964200245E1,-6.358944178E-1,-5.757842064E-1,-1.067877769E0
1.966082725E1,-4.001951218E-2,6.749248505E-2,-1.303678989E0
1.967965204E1,8.820336461E-1,6.907310486E-1,-1.630510330E0
1.969847683E1,1.986081004E0,1.384865761E0,-2.098557472E0
1.971728850E1,3.404210806E0,1.443422318E0,-2.350752354E0
1.973612641E1,5.276330948E0,1.020615578E0,-2.501326799E0
1.975495120E1,7.214926243E0,1.039250374E0,-2.244170666E0
1.977377600E1,8.363202095E0,2.113124847E0,-1.934110880E0
1.979260079E1,7.797488213E0,3.499320984E0,-1.592610598E0
1.981142558E1,6.496914387E0,3.302920341E0,-1.014830828E0
1.983025037E1,5.385406017E0,2.439633369E0,-3.706979752E-2
1.984907516E1,4.245293617E0,2.283595085E0,9.650969505E-1
1.986789995E1,3.084213018E0,2.632325172E0,1.737918854E0
1.988672475E1,2.492421150E0,2.267210007E0,2.312381744E0
1.990554954E1,2.424448967E0,1.224582672E0,2.931937695E0
1.992437433E1,2.325971842E0,1.936588287E-1,3.214525223E0
1.994319912E1,2.069983482E0,-3.662157059E-1,3.126895905E0
1.996202391E1,1.645121098E0,-2.717084885E-1,2.649131298E0
1.998084870E1,1.072223425E0,3.940391541E-1,2.019460201E0
1.999967350E1,5.826246738E-1,1.137322426E0,1.663445473E0
2.001849829E1,1.545619369E-1,2.006735802E0,1.541232109E0
2.003732308E1,-3.191292882E-1,2.371658325E0,1.858419418E0
2.005614787E1,-9.111889601E-1,2.007676125E0,2.135092735E0
2.007497266E1,-1.544958591E0,1.611250877E0,2.021068573E0
2.009379745E1,-1.833618760E0,1.169409752E0,1.699504375E0
2.011262225E1,-1.184554219E0,8.796939850E-1,1.757999420E0
2.013144704E1,-2.691610754E-1,1.445934296E0,1.446538448E0
2.015027183E1,1.297558546E-1,2.214253902E0,7.016654015E-1
2.016909662E1,5.966442227E-1,2.305000782E0,-1.688876152E-1
2.018792141E1,1.122428417E0,1.897391796E0,-9.398241043E-1
2.020674620E1,1.564959526E0,1.662709713E0,-1.606375694E0
2.022557100E1,2.092868805E0,1.409726620E0,-2.024065971E0
2.024439579E1,2.332652569E0,1.080788136E0,-2.782782555E0
2.026322058E1,2.195040226E0,6.066708565E-1,-3.560079575E0
2.028204537E1,2.127600431E0,-3.030447960E-1,-4.186333656E0
2.030087016E1,2.209344864E0,-8.411884308E-1,-4.553102016E0
2.031969495E1,2.257230043E0,-1.115798950E-1,-4.813326836E0
2.033851975E1,1.990321159E0,1.407169819E0,-4.862128258E0
2.035734454E1,1.772506714E0,2.538228035E0,-4.767128944E0
2.037616933E1,1.386928797E0,3.487884998E0,-4.421738625E0
2.039499412E1,9.675962925E-1,3.425279140E0,-4.013365269E0
2.041381891E1,7.576897144E-1,2.561210632E0,-3.373715878E0
2.043264370E1,5.566624403E-1,1.954398632E0,-2.877775669E0
2.045146850E1,4.018983841E-1,1.756659508E0,-2.764544010E0
2.047029334E1,1.999149323E-1,1.920654774E0,-2.669912338E0
2.048911808E1,4.384765625E-1,2.493259430E0,-2.494163990E0
2.050794292E1,1.073311210E0,2.968166351E0,-2.142390728E0
2.052676772E1,1.842622042E0,3.630735874E0,-1.970274925E0
2.054559251E1,2.231012583E0,4.303915977E0,-2.049784184E0
2.056441730E1,2.179732800E0,4.516309261E0,-2.470519543E0
2.058324209E1,1.883159995E0,4.599648952E0,-3.356077671E0
2.060206688E1,1.665790319E0,4.239722729E0,-4.360639572E0
2.062089167E1,1.516315818E0,4.197880745E0,-5.280277729E0
2.063971647E1,1.207634807E0,5.225463867E0,-6.027620316E0
2.065854126E1,1.123452544E0,7.371046543E0,-5.421003342E0
2.067736605E1,2.114313126E0,8.464124680E0,-4.554815292E0
2.069619084E1,3.355906248E0,8.812522888E0,-3.624321461E0
2.071501563E1,3.311724186E0,8.770355225E0,-3.036070347E0
2.073382735E1,1.549090624E0,8.397819519E0,-2.965467930E0
2.075266527E1,-9.139922261E-1,7.217489243E0,-3.482351780E0
2.077149006E1,-2.883226156E0,6.217504978E0,-3.772057533E0
2.079031485E1,-3.428894997E0,5.331758499E0,-3.651482582E0
2.080913964E1,-2.748968840E0,5.019619942E0,-2.913097382E0
2.082796443E1,-1.473453879E0,4.530375481E0,-1.706346512E0
2.084678923E1,-1.940526962E-1,2.572541237E0,-1.395938396E0
2.086561402E1,4.934893250E-1,2.189817905E0,-1.911404133E0
2.088443886E1,3.386553526E-1,3.033269882E0,-2.764591932E0
2.090326365E1,1.494651884E-1,3.553810120E0,-3.427544594E0
2.092208844E1,1.833525300E-2,3.376489162E0,-4.032410622E0
2.094091324E1,3.667354584E-3,3.171810150E0,-4.398113251E0
2.095973803E1,-2.306293845E-1,2.993924618E0,-4.948402405E0
2.097856282E1,-9.786096215E-1,3.546439171E0,-5.358863831E0
2.099738766E1,-1.712122440E0,3.649173737E0,-5.458252907E0
2.101621245E1,-2.284182310E0,3.372684479E0,-5.374338627E0
2.103503725E1,-2.551804543E0,2.930678844E0,-4.863732815E0
2.105386204E1,-3.143275261E0,2.545929909E0,-4.614171982E0
2.107268683E1,-3.542948246E0,2.479716301E0,-4.029887199E0
2.109151162E1,-3.642866611E0,2.765143871E0,-3.194518805E0
2.111033646E1,-3.840962410E0,2.984018326E0,-2.540333748E0
2.112916126E1,-3.960802078E0,2.791885376E0,-1.725348473E0
2.114798605E1,-4.082869053E0,2.807598114E0,-1.136944771E0
2.116681084E1,-4.266379833E0,2.455305576E0,-6.015028954E-1
2.118563563E1,-4.303373337E0,2.236077309E0,-4.498987198E-1
2.120446042E1,-4.481353760E0,2.255881786E0,-3.206443787E-1
2.122328527E1,-4.536828995E0,2.094421387E0,-9.615135193E-2
2.124211006E1,-4.445378304E0,2.288404942E0,-1.727352142E-1
2.126093485E1,-3.973947048E0,2.004539013E0,-1.745452881E-1
2.127975964E1,-3.234557629E0,1.945985794E0,4.270410538E-2
2.129858443E1,-2.571481705E0,2.059002399E0,-1.657586098E-1
2.131740928E1,-2.102169991E0,1.438161850E0,-4.806947708E-1
2.133623407E1,-1.487017393E0,2.043704987E-1,-1.317336082E0
2.135505886E1,-1.249967813E0,4.855251312E-2,-2.388410091E0
2.137388365E1,-1.591239929E0,6.047587395E-1,-3.048132896E0
2.139270844E1,-1.743422866E0,5.476427078E-1,-3.679868221E0
2.141153324E1,-1.647986054E0,9.327936172E-2,-4.312205791E0
2.143035808E1,-1.612086535E0,-7.128014565E-1,-4.497483730E0
2.144918287E1,-1.511913538E0,-1.179807663E0,-4.255228043E0
2.146800766E1,-1.576728582E0,-1.031972408E0,-3.872163534E0
2.148683245E1,-1.695271492E0,-9.999685287E-1,-3.502508640E0
2.150565730E1,-1.926878929E0,-5.225000381E-1,-3.002621174E0
2.152448209E1,-2.224030972E0,-6.250238419E-2,-2.610670567E0
2.154330688E1,-2.702626467E0,5.498204231E-1,-2.481115341E0
2.156213167E1,-3.292080164E0,7.427167892E-1,-1.714075089E0
2.158095646E1,-3.724134684E0,7.677321434E-1,-9.638843536E-1
2.159978131E1,-3.951846838E0,6.867947578E-1,8.843708038E-2
2.161860610E1,-3.899033546E0,7.268142700E-1,1.034305573E0
2.163743089E1,-3.467543840E0,3.463525772E-1,1.531495571E0
2.165625574E1,-2.605709553E0,4.674782753E-1,1.498412132E0
2.167508053E1,-1.750345945E0,9.000539780E-1,1.461758137E0
2.169390532E1,-8.724792004E-1,8.611145020E-1,1.542809486E0
2.171273011E1,5.184888840E-2,6.343441010E-1,1.973759174E0
2.173155490E1,8.966419697E-1,-2.533864975E-2,2.021319866E0
2.175037975E1,1.533110619E0,-4.629173279E-1,1.633220673E0
2.176920454E1,1.834962487E0,-6.301403046E-3,1.359596252E0
2.178802933E1,1.571472049E0,1.133288383E0,8.113608360E-1
2.180685417E1,1.077019930E0,1.992433071E0,-1.892485619E-1
2.182567896E1,6.712144613E-1,2.520162106E0,-6.018967628E-1
2.184450376E1,3.994567394E-1,2.999932766E0,-5.150313377E-1
2.186331548E1,-6.049394608E-3,1.428903580E0,-7.652916908E-1
2.188215339E1,-4.213138819E-1,-1.354552746E0,-1.194417000E0
2.190097818E1,-6.254273653E-1,-2.449596405E0,-1.202177048E0
2.191980298E1,-8.842921257E-1,-1.756366253E0,-1.052191257E0
2.193862782E1,-1.286859035E0,-2.918539047E-1,-9.797663689E-1
2.195745261E1,-1.509410620E0,5.140066147E-1,-8.808798790E-1
2.197627740E1,-1.553431630E0,7.215838432E-1,-8.080430031E-1
2.199510225E1,-1.908996105E0,3.438959122E-1,-9.197602272E-1
2.201392704E1,-2.526788235E0,-3.212156296E-1,-1.187006474E0
2.203275183E1,-3.112384796E0,-1.106619835E0,-1.279157162E0
2.205157667E1,-3.030797958E0,-1.257640362E0,-8.969659805E-1
2.207040146E1,-2.725949287E0,-6.607556343E-1,-1.792016029E-1
2.208922626E1,-2.697006226E0,-1.157760620E-1,2.454314232E-1
2.210805110E1,-3.007752895E0,-1.167960167E-1,1.577420235E-1
2.212687589E1,-3.079972267E0,-7.271752357E-1,-3.097486496E-1
2.214570068E1,-2.669473410E0,-1.579731464E0,-6.654005051E-1
2.216452553E1,-1.792830944E0,-1.677283287E0,-7.521700859E-1
2.218335032E1,-7.289171219E-1,-8.702263832E-1,-5.870895386E-1
2.220217511E1,1.142909527E-1,3.216004372E-1,-2.385950089E-1
2.222099995E1,7.760908008E-1,3.273444176E-1,3.529930115E-2
2.223982475E1,1.138890505E0,-3.372597694E-1,-1.379919052E-1
2.225864954E1,1.016748428E0,-1.133512020E0,-4.113001823E-1
2.227747438E1,5.293344259E-1,-1.887506485E0,-6.382083893E-1
2.229629917E1,3.103697300E-2,-1.810965538E0,-4.899363518E-1
2.231511089E1,-2.753539085E-1,-3.394608498E-1,-9.606266022E-2
2.233394881E1,-6.905777454E-1,1.609493256E0,2.865333557E-1
2.235277360E1,-1.220978498E0,2.440957546E0,3.060026169E-1
2.237159839E1,-1.706590891E0,1.630851746E0,1.205096245E-1
2.239042324E1,-1.991526604E0,-2.465872765E-1,-1.124849319E-1
2.240924803E1,-1.946093321E0,-1.736707687E0,-3.021960258E-1
2.242807287E1,-1.641628027E0,-1.849077225E0,-7.944345474E-2
2.244689766E1,-1.177287579E0,-9.363231659E-1,4.638195038E-1
2.246572245E1,-8.739967346E-1,1.593980789E-1,6.269531250E-1
2.248454730E1,-8.758451939E-1,8.082427979E-1,2.580447197E-1
2.250337209E1,-1.005254984E0,9.919290543E-1,-1.795048714E-1
2.252219693E1,-1.240611792E0,1.259637833E0,-5.773286819E-1
2.254102172E1,-1.543804169E0,1.296355247E0,-7.787084579E-1
2.255984652E1,-1.688858032E0,1.545795441E0,-1.047880650E0
2.257867136E1,-1.720385075E0,1.975222588E0,-1.152315140E0
2.259749615E1,-1.479254484E0,2.274484158E0,-1.313980818E0
2.261632100E1,-1.125896692E0,2.340981960E0,-1.377021074E0
2.263514579E1,-8.300137520E-1,2.123826981E0,-1.396791220E0
2.265397058E1,-5.667521954E-1,1.849355221E0,-1.461088419E0
2.267279542E1,-3.669023514E-2,1.407839298E0,-1.355722189E0
2.269162022E1,2.976980209E-1,1.223121166E0,-1.310665131E0
2.271044506E1,6.407036781E-1,9.370346069E-1,-1.236744404E0
2.272926985E1,1.028483391E0,8.849177361E-1,-1.214523792E0
2.274809464E1,1.325150013E0,3.408560753E-1,-1.132527351E0
2.276691949E1,1.637680054E0,5.633831024E-3,-1.245978355E0
2.278574428E1,1.863796949E0,1.599202156E-1,-1.123733997E0
2.280456912E1,1.995544910E0,3.195457458E-1,-9.434700012E-1
2.282339391E1,1.901064873E0,1.089133263E0,-7.232179642E-1
2.284221876E1,1.615123272E0,1.778685570E0,-2.899045944E-1
2.286104355E1,1.358169317E0,2.663952827E0,1.774230003E-1
2.287986839E1,1.126684904E0,3.151260853E0,4.108319283E-1
2.289869318E1,1.003487349E0,2.683146954E0,3.331403732E-1
2.291751798E1,1.243931770E0,1.144495487E0,1.704626083E-1
2.293632969E1,1.906633139E0,-5.101070404E-1,-6.288385391E-2
2.295516761E1,2.388136148E0,-9.914550781E-1,-7.695484161E-2
2.297399245E1,2.344904900E0,1.917567253E-1,1.584391594E-1
2.299280412E1,2.012933731E0,2.833010197E0,4.357786179E-1
2.301164209E1,1.896418333E0,4.708051205E0,6.592588425E-1
2.303046688E1,1.999537230E0,4.275066376E0,9.392485619E-1
2.304927860E1,2.024671316E0,2.141684055E0,1.053104401E0
2.306811652E1,1.879989624E0,6.397194862E-1,1.198315620E0
2.308694131E1,1.664032459E0,3.366279602E-2,9.738054276E-1
2.310576615E1,1.153119564E0,3.619236946E-1,3.385376930E-1
2.312459094E1,6.973590851E-1,1.050973892E0,-3.439879417E-1
2.314341579E1,7.731952667E-1,9.678850174E-1,-7.322669029E-1
2.316224058E1,1.161107063E0,5.467071533E-1,-8.728694916E-1
2.318106542E1,1.509688377E0,9.983539581E-2,-7.448945045E-1
2.319989022E1,1.563504219E0,-1.986765862E-1,-5.678195953E-1
2.321871506E1,1.432614326E0,-6.756572723E-1,-5.661325455E-1
2.323753985E1,1.154978275E0,-7.390418053E-1,-6.971740723E-1
2.325636464E1,8.602466583E-1,-3.868894577E-1,-7.705240250E-1
2.327518949E1,6.902647018E-1,-8.295869827E-2,-8.396177292E-1
2.329401428E1,8.648934364E-1,-1.664562225E-1,-8.664765358E-1
2.331283912E1,1.085461617E0,-6.911315918E-1,-6.755356789E-1
2.333166391E1,1.122357368E0,-1.193848848E0,-4.419922829E-1
2.335048876E1,5.864825249E-1,-6.659069061E-1,-4.475121498E-1
2.336931355E1,-4.285812378E-1,7.437949181E-1,-5.589032173E-1
2.338813839E1,-1.127564430E0,1.256942272E0,-2.913541794E-1
2.340696318E1,-1.374039173E0,1.193900108E0,1.792826653E-1
2.342578803E1,-1.378952503E0,9.745912552E-1,-3.249645233E-3
2.344461282E1,-1.106877804E0,2.622699738E-2,-3.253808022E-1
2.346343766E1,-7.349519730E-1,-8.422818184E-1,-6.853475571E-1
2.348226245E1,-3.149142265E-1,-1.476479053E0,-1.129683971E0
2.350108730E1,-8.745288849E-2,-1.490113735E0,-1.349131584E0
2.351991209E1,-5.401229858E-2,-6.221160889E-1,-1.285176039E0
2.353873693E1,1.251935959E-2,1.495680809E-1,-1.215535164E0
2.355756173E1,2.186403275E-1,6.433100700E-1,-1.014602900E0
2.357638657E1,1.331343651E-1,8.257827759E-1,-5.954990387E-1
2.359521136E1,7.403850555E-3,5.152893066E-1,-2.097859383E-1
2.361403620E1,-1.604323387E-1,1.012048721E-1,-1.571431160E-1
2.363286100E1,-5.586671829E-1,-2.469925880E-1,-1.349713802E-1
2.365168584E1,-1.133466721E0,-4.247913361E-1,8.552312851E-2
2.367051063E1,-1.508004189E0,-5.329737663E-1,3.433537483E-1
2.368933548E1,-1.256523132E0,-4.374170303E-1,3.405416012E-1
2.370816027E1,-8.425817490E-1,7.093572617E-2,5.165262222E-1
2.372698511E1,-6.379241943E-1,4.597201347E-1,7.265474796E-1
2.374580990E1,-1.294426918E-1,8.381271362E-1,8.811588287E-1
2.376463475E1,8.187861443E-1,1.106251240E0,7.568562031E-1
2.378345959E1,1.556772232E0,1.538780689E0,8.688845634E-1
2.380228438E1,1.857210159E0,2.047278881E0,9.350044727E-1
2.382110922E1,1.656810760E0,3.001278877E0,1.766813517E0
2.383993402E1,1.882597923E0,2.348383904E0,1.462190628E0
2.385875886E1,2.557493210E0,3.198356628E-1,-7.921280861E-1
2.387758365E1,1.745130539E0,1.217468739E0,-8.190650940E-1
2.389640850E1,6.227211952E-1,3.015368462E0,3.999607563E-1
2.391523334E1,1.382648945E0,2.443669796E0,-2.302677631E-1
2.393405813E1,1.173130512E0,1.298922539E0,-1.250332355E0
2.395288298E1,1.180868626E0,-7.171630859E-3,-2.402863503E0
2.397170777E1,3.207417250E0,-5.955882072E-1,-2.345923185E0
2.399053261E1,4.556712627E0,6.182532310E-1,-1.209669113E-1
2.400935740E1,3.671584606E0,1.982720852E0,1.363030910E0
2.402818225E1,1.742172718E0,2.135711670E0,2.289489031E0
2.404700709E1,2.844510078E-1,2.084574223E0,2.377638340E0
2.406581881E1,-6.991100311E-1,7.830810547E-1,1.006232738E0
2.408465673E1,-2.452983379E0,-4.642620087E-1,-6.413292885E-1
2.410348152E1,-3.948244572E0,-1.208507061E0,-1.047271013E0
2.412230636E1,-3.832098961E0,-1.569122791E0,-5.875250101E-1
2.414113120E1,-2.766474724E0,-6.352810860E-1,1.154723167E-1
2.415995600E1,-1.369736671E0,-1.544952393E-2,3.766489029E-1
2.417878084E1,-3.526554108E-1,1.230850220E-1,7.782897949E-1
2.419760568E1,7.800960541E-1,-2.128419876E-1,1.160679102E0
2.421643048E1,1.856987953E0,-6.915788651E-1,9.208834171E-1
2.423525532E1,2.229596376E0,-7.701592445E-1,1.206368923E0
2.425408016E1,1.999559164E0,-3.341031075E-1,1.344577551E0
2.427290495E1,1.463057041E0,1.703581810E-1,5.949296951E-1
2.429172980E1,8.659486771E-1,7.278919220E-3,-2.393832207E-1
2.431055459E1,6.878643036E-1,-4.888505936E-1,-6.566927433E-1
2.432937943E1,7.403998375E-1,-8.004279137E-1,-8.866400719E-1
2.434820428E1,4.508280754E-1,-3.267669678E-1,-6.103148460E-1
2.436702907E1,-1.169538498E-1,7.890877724E-1,-6.061511040E-1
2.438585391E1,-8.329172134E-1,1.680433273E0,-4.481573105E-1
2.440467876E1,-1.107331276E0,1.992329597E0,-7.995176315E-2
2.442350355E1,-1.180561066E0,2.030748844E0,9.091782570E-2
2.444232839E1,-1.415697098E0,1.742691040E0,1.243727207E-1
2.446115324E1,-1.309856415E0,8.407964706E-1,1.750650406E-1
2.447997803E1,-5.017614365E-1,-6.293921471E-1,3.936393261E-1
2.449880287E1,6.328988075E-1,-2.265758991E0,7.499735355E-1
2.451762772E1,1.387638569E0,-3.200098515E0,1.264488697E0
2.453645251E1,1.218233824E0,-2.648495674E0,1.280635118E0
2.455527735E1,3.439249992E-1,-1.482424259E0,5.093767643E-1
2.457408907E1,-8.025040627E-1,2.377691269E-1,8.865642548E-2
2.459292699E1,-1.632834435E0,1.615927696E0,1.636841297E-1
2.461175183E1,-2.071340084E0,2.147822380E0,2.119047642E-1
2.463057667E1,-2.415830612E0,1.704401016E0,3.660049438E-1
2.464940152E1,-2.296922207E0,4.801321030E-1,6.052088737E-1
2.466822631E1,-1.792097092E0,-5.765886307E-1,7.315642834E-1
2.468705115E1,-9.963517189E-1,-1.019544601E0,5.942609310E-1
2.470587600E1,5.163002014E-2,-1.001569271E0,3.590881824E-1
2.472470079E1,9.533035755E-1,-7.705183029E-1,3.696498871E-1
2.474352563E1,1.433339357E0,-6.136865616E-1,1.620783806E-1
2.476235048E1,1.477415562E0,-7.725539207E-1,-3.455352783E-2
2.478117532E1,1.224474907E0,-8.969149590E-1,-1.158463955E-1
2.480000011E1,7.734081745E-1,-6.818952560E-1,-3.682148457E-1
2.481882495E1,2.902760506E-1,-2.648601532E-1,-4.577310085E-1
2.483764980E1,-1.996755600E-2,3.690099716E-1,-3.054389954E-1
2.485647459E1,2.109096050E-1,4.902572632E-1,6.142902374E-2
2.487529943E1,3.739752769E-1,5.921192169E-1,3.542315960E-1
2.489412428E1,3.777909279E-1,1.336503983E0,5.823047161E-1
2.491294912E1,5.640769005E-1,1.161185265E0,4.405434132E-1
2.493177396E1,4.707598686E-1,1.107642174E0,3.147287369E-1
2.495059876E1,5.942716599E-1,8.768863678E-1,2.549581528E-1
2.496942360E1,7.103102207E-1,6.280450821E-1,2.325434685E-1
2.498824844E1,7.997355461E-1,5.501117706E-1,2.309384346E-1
2.500707329E1,5.499850512E-1,4.912672043E-1,4.764928818E-1
2.502589808E1,4.133939743E-2,2.211227417E-1,1.959767342E-1
2.504472292E1,-4.191639423E-1,-1.598167419E-1,-9.400868416E-2
2.506354777E1,-7.488738298E-1,-5.557498932E-1,-3.270676136E-1
2.508237261E1,-9.031022787E-1,-9.124631882E-1,-6.172599792E-1
2.510119740E1,-7.691885233E-1,-8.281135559E-1,-6.876332760E-1
2.512002225E1,-5.856686831E-1,-2.425937653E-1,-9.076676369E-1
2.513884709E1,-4.686965942E-1,5.302658081E-1,-1.246470928E0
2.515767193E1,-1.401065588E-1,1.014682770E0,-1.579488039E0
2.517649678E1,4.341428280E-1,5.540046692E-1,-1.924901962E0
2.519532157E1,1.052744627E0,8.550930023E-2,-2.265401125E0
2.521414641E1,1.800283790E0,-1.265859604E-1,-2.186925888E0
2.523297126E1,2.578246832E0,-4.401483536E-1,-1.686022758E0
2.525179610E1,3.100875854E0,-5.349874496E-1,-1.282855034E0
2.527062094E1,3.102503300E0,2.002649307E-1,-1.083360195E0
2.528944574E1,2.768268108E0,1.196603775E0,-1.327834845E0
2.530827058E1,2.504990101E0,1.365804672E0,-1.633418560E0
2.532709542E1,2.349726200E0,1.071304321E0,-1.734740376E0
2.534592027E1,2.335431576E0,6.694192886E-1,-1.729977965E0
2.536474511E1,2.221329927E0,4.516534805E-1,-1.537711859E0
2.538356990E1,1.887765169E0,6.108283997E-1,-1.429965258E0
2.540239475E1,1.346439123E0,1.101685524E0,-1.458005905E0
2.542121959E1,8.969724178E-1,1.903831482E0,-1.153190851E0
2.544004443E1,7.575182915E-1,2.648417473E0,-5.577492714E-1
2.545886928E1,7.782185078E-1,3.334104538E0,-5.727052689E-2
2.547769407E1,5.324552059E-1,3.852902889E0,4.438099861E-1
2.549651891E1,-2.547121048E-1,4.604770660E0,5.297391415E-1
2.551534376E1,-1.117678165E0,4.566171169E0,7.739005089E-1
2.553415548E1,-1.531272888E0,3.201677799E0,1.013048887E0
2.555299344E1,-1.507073402E0,8.600049019E-1,5.716025829E-1
2.557181829E1,-8.492112160E-1,-1.013944149E0,8.624465466E-1
2.559064308E1,3.927540779E-1,-2.097301960E0,1.280292511E0
2.560946792E1,7.658843994E-1,-1.809773445E0,1.222913265E0
2.562829277E1,6.377086639E-1,1.148543358E-1,1.078723907E0
2.564711761E1,1.188758135E0,1.262190342E0,2.179689407E-1
2.566594245E1,2.346349001E0,2.751302719E-1,-5.375304222E-1
2.568476725E1,3.356602669E0,-6.032423973E-1,-4.729032516E-2
2.570359209E1,3.856270313E0,-1.009080887E0,7.548451424E-1
2.572241693E1,3.530134439E0,-1.418056965E0,5.451385975E-1
2.574124178E1,2.539479256E0,-1.522269726E0,9.311532974E-2
2.576006662E1,1.727811098E0,-1.542939663E0,9.009575844E-2
2.577889146E1,1.103351831E0,-1.499821663E0,8.921647072E-2
2.579771631E1,3.204030991E-1,-1.175962925E0,1.267795563E-1
2.581654115E1,-7.559783459E-1,-7.108321190E-1,4.203228951E-1
2.583536600E1,-1.492814064E0,-1.250467300E-1,7.695951462E-1
2.585419079E1,-1.584026575E0,3.541631699E-1,9.009566307E-1
2.587301563E1,-1.687028646E0,6.209297180E-1,1.667909384E0
2.589184048E1,-1.964042664E0,1.997241974E-1,1.726897717E0
2.591066532E1,-2.291758776E0,-3.441438675E-1,1.819788218E0
2.592949016E1,-2.168928623E0,-6.081647873E-1,2.150845766E0
2.594831501E1,-2.113399982E0,-9.738864899E-1,2.345284224E0
2.596713985E1,-2.260481358E0,-1.330224991E0,1.992975235E0
2.598596469E1,-2.109537125E0,-1.565454006E0,1.584486008E0
2.600478954E1,-1.822549105E0,-1.435725212E0,1.621037006E0
2.602361438E1,-2.176416874E0,-5.871152878E-1,1.528772831E0
2.604243923E1,-2.540882587E0,3.988552094E-1,1.039723635E0
2.606126407E1,-2.859992981E0,5.896883011E-1,7.619729042E-1
2.608008891E1,-2.723408222E0,-1.895513535E-1,-7.764434814E-2
2.609891376E1,-2.525706768E0,-6.165924072E-1,-3.869838715E-1
2.611773860E1,-2.639274359E0,8.504295349E-2,2.272148132E-1
2.613656339E1,-2.657449484E0,9.083461761E-1,5.149817467E-1
2.615538824E1,-2.458815575E0,1.703380585E0,1.060331821E0
2.617421308E1,-2.253004789E0,2.181224823E0,1.268648624E0
2.619303792E1,-2.739563942E0,1.742214203E0,1.001954079E0
2.621186277E1,-3.319201946E0,1.033303738E0,1.318286896E0
2.623068761E1,-4.361412048E0,6.091403961E-1,1.949920654E0
2.624951251E1,-4.399806023E0,1.040732861E0,3.694376469E0
2.626832422E1,-3.991760254E0,1.994176865E0,5.294089794E0
2.628716214E1,-4.038319588E0,2.872490406E0,5.741215706E0
2.630598699E1,-4.002373695E0,2.957732677E0,5.035847187E0
2.632481183E1,-3.156398058E0,2.443766594E0,4.221389771E0
2.634363673E1,-2.154670715E0,1.290498257E0,3.640340805E0
2.636246152E1,-1.562006474E0,2.733659744E-2,2.545688629E0
2.638128636E1,-7.278976440E-1,9.886212349E-1,1.270023823E0
2.640011126E1,7.205843925E-1,1.916755915E0,1.184804916E0
2.641893610E1,6.119670868E-1,2.019275904E0,2.887244225E-1
2.643774782E1,-3.829855919E-1,1.226653695E0,-1.034482956E0
2.645658579E1,-2.256459236E0,8.228494525E-1,-1.285011292E0
2.647541063E1,-4.402938843E0,6.478294134E-1,-2.680057049E0
2.649422235E1,-3.611500263E0,1.250127673E0,-4.056280136E0
2.651306032E1,-5.888891220E-1,2.531112194E0,-2.408809662E0
2.653188516E1,1.939193010E0,2.928045273E0,-1.289982319E0
2.655071001E1,2.972414017E0,1.937619925E0,-1.667378902E0
2.656953485E1,2.697658777E0,1.907780409E0,-2.153107166E0
2.658835969E1,1.712542295E0,1.220042229E0,-2.859490395E0
2.660718454E1,3.587834835E-1,7.014765739E-1,-3.564138889E0
2.662600938E1,4.877328873E-2,3.203597069E-1,-2.703218460E0
2.664483422E1,5.630772114E-1,-2.937092781E-1,-3.175941467E0
2.666365907E1,1.121604323E0,-5.207219124E-1,-2.770033360E0
2.668248391E1,-2.089564800E-1,-2.251958847E-2,-1.472902298E0
2.670130876E1,-1.051270485E0,1.321156979E0,-4.816098213E-1
2.672012048E1,-1.498258591E0,3.374083757E0,-2.797760010E0
2.673895844E1,-1.449926853E0,4.808459282E0,-3.554143429E0
2.675778329E1,1.136242151E-1,6.180167675E0,-3.200973034E0
2.677660813E1,1.243193388E0,7.122040749E0,-2.500118732E0
2.679543298E1,1.067691326E0,5.986155510E0,-2.028993607E0
2.681425782E1,8.619102836E-1,3.909861326E0,-1.273664474E0
2.683308266E1,1.040919065E0,2.334628820E0,-5.190749168E-1
2.685190751E1,1.717456579E0,1.641703606E0,-5.936384201E-2
2.687073235E1,2.122781754E0,4.248700142E-1,4.360480309E-1
2.688955719E1,9.978957772E-1,-4.485497475E-1,3.943924904E-1
2.690838204E1,-5.270161629E-1,-8.349771500E-1,-7.645721436E-1
2.692720688E1,-1.603267908E0,-8.802795410E-1,-1.493869305E0
2.694603172E1,-1.777046442E0,-4.796767235E-1,-1.092011452E0
2.696485657E1,-1.996476412E0,-1.246023178E-2,-6.760716438E-1
2.698368141E1,-1.444171906E0,2.711329460E-1,-2.691626549E-1
2.700250631E1,-1.161377668E0,7.239289284E-1,-1.339778900E-1
2.702133115E1,-1.565035820E0,1.485286236E0,3.107023239E-2
2.704015600E1,-1.930512667E0,1.332974672E0,-2.793121338E-1
2.705898084E1,-1.769042015E0,4.731488228E-1,-6.106181145E-1
2.707780568E1,-2.658090115E0,2.722554207E-1,-7.881650925E-1
2.709663053E1,-3.390536547E0,4.740228653E-1,-2.017375946E0
2.711545537E1,-2.862856627E0,4.943079948E-1,-3.152932167E0
2.713428022E1,-2.534733057E0,7.430293560E-1,-1.673441410E0
2.715310506E1,-2.438852310E0,1.161220551E0,3.283343315E-1
2.717192990E1,-1.902356625E0,1.610454798E0,1.002098083E0
2.719075475E1,-1.320970535E0,1.816076398E0,1.135559559E0
2.720957959E1,-1.120412827E0,2.336867809E0,5.251049995E-1
2.722840443E1,-1.260523319E0,2.443757534E0,3.359618187E-1
2.724722928E1,-1.153605938E0,2.644353151E0,-1.436281204E-2
2.726605412E1,-1.130256653E0,2.245920658E0,7.903862000E-2
2.728487896E1,-6.585741043E-1,1.857010126E0,-2.976717949E-1
2.730370381E1,7.400171757E-1,1.139009356E0,-1.090431213E-1
2.732252870E1,1.493106127E0,7.157816887E-1,7.356252670E-1
2.734135355E1,2.432194710E0,8.703422546E-1,9.088878632E-1
2.736017839E1,2.849181652E0,1.564746857E0,5.241174698E-1
2.737900324E1,3.315440178E0,2.006966114E0,-4.044523239E-1
2.739782808E1,4.656543255E0,1.486562490E0,-1.268374920E0
2.741665292E1,6.084170341E0,1.740660191E0,2.672967911E-1
2.743547777E1,7.429759026E0,2.754793167E0,1.243662834E0
2.745430261E1,8.574154854E0,2.527201653E0,3.022895813E0
2.747312745E1,8.837406158E0,2.156974316E0,2.834419250E0
2.749195235E1,6.491890430E0,2.757400990E0,1.310089588E0
2.751076407E1,3.268153191E0,2.921247959E0,7.883276939E-1
2.752960204E1,3.849391937E-1,2.582517147E0,3.365907669E-1
2.754842688E1,-2.152798176E0,1.705348969E0,2.042469978E-1
2.756725173E1,-3.286459923E0,1.057386398E0,-6.292018890E-1
2.758607657E1,-3.716600895E0,4.261128902E-1,-1.235927105E0
2.760490141E1,-3.740441322E0,-9.465873241E-2,-1.871567249E0
2.762372626E1,-3.735382557E0,-2.372297049E-1,-1.807556629E0
2.764255115E1,-3.387544632E0,-6.472939253E-1,-1.372021198E0
2.766137600E1,-3.039109230E0,-1.570391893E0,-1.643475533E0
2.768020084E1,-3.635572910E0,-1.213559866E0,-2.770380497E0
2.769902568E1,-4.282230377E0,-3.504269123E-1,-2.404392719E0
2.771785053E1,-4.500450134E0,9.703183174E-2,-1.958350658E0
2.773667542E1,-4.453913689E0,-4.609162807E-1,-2.482054710E0
2.775550027E1,-4.295067310E0,-8.724534512E-1,-3.071691513E0
2.777432511E1,-3.881738663E0,-9.185674191E-1,-3.130022764E0
2.779314995E1,-3.017162800E0,-7.565071583E-1,-2.217467785E0
2.781197480E1,-1.869263649E0,-6.146533489E-1,-1.806596756E0
2.783079964E1,-1.421193600E0,-2.131037712E-1,-1.822550297E0
2.784962454E1,-1.262320042E0,8.633465767E-1,-1.635604382E0
2.786844938E1,-8.690538406E-1,1.994066238E0,-7.817406654E-1
2.788727423E1,-5.314636230E-2,2.672122955E0,-1.988554001E-2
2.790609907E1,-3.521728516E-2,3.272047520E0,2.292919159E-1
2.792492391E1,-3.569149971E-1,2.947864056E0,2.589316368E-1
2.794374881E1,-5.443377495E-1,2.101121902E0,2.165846825E-1
2.796257365E1,1.038408279E-2,1.207448483E0,2.699003220E-1
2.798139850E1,4.673638344E-1,5.420470238E-1,6.231060028E-1
2.800022334E1,7.346575260E-1,6.439337730E-1,7.266535759E-1
2.801904818E1,8.206033707E-1,1.090190887E0,7.978534698E-1
2.803787308E1,9.236452579E-1,1.269340038E0,9.289469719E-1
2.805669792E1,1.168452740E0,1.398735046E0,7.318258286E-1
2.807552277E1,1.554867506E0,1.258047104E0,6.390037537E-1
2.809434761E1,2.020600796E0,1.030567169E0,6.390705109E-1
2.811317251E1,2.229696751E0,1.111920357E0,5.715975761E-1
2.813199735E1,2.143148184E0,1.747499466E0,5.712499619E-1
2.815082219E1,1.979355812E0,2.284199238E0,8.364973068E-1
2.816964704E1,1.576513529E0,2.567207336E0,8.905906677E-1
2.818847193E1,1.095526457E0,2.597395420E0,8.718967438E-1
2.820729678E1,6.198108196E-1,2.154895782E0,7.555923462E-1
2.822612162E1,2.639746666E-1,1.267763615E0,7.248191833E-1
2.824493339E1,-3.594303131E-2,-9.785270691E-2,7.522139549E-1
2.826377136E1,-2.837958336E-1,-1.847740650E0,4.285759926E-1
2.828259620E1,-4.052529335E-1,-2.787815571E0,2.802176476E-1
2.830142105E1,-4.635977745E-1,-2.762243748E0,4.882636070E-1
2.832024589E1,-3.818306923E-1,-1.921545506E0,8.234210014E-1
2.833907079E1,-5.863394737E-1,-6.803359985E-1,1.171303272E0
2.835789563E1,-1.189093590E0,-5.511536598E-1,1.249763489E0
2.837672048E1,-1.949781418E0,-1.837483406E0,7.991595268E-1
2.839554532E1,-2.556785583E0,-2.743915558E0,1.362195015E-1
2.841437022E1,-3.066913605E0,-2.401069641E0,-3.321018219E-1
2.843319506E1,-2.997005939E0,-1.267529488E0,-4.486069679E-1
2.845201990E1,-2.135127068E0,5.337810516E-2,-5.246772766E-1
2.847084480E1,-1.210385323E0,4.622855186E-1,-5.019412041E-1
2.848966964E1,-5.782442093E-1,1.144447327E-1,-9.384350777E-1
2.850849449E1,1.194477081E-3,-7.768197060E-1,-1.530548573E0
2.852731933E1,6.138875484E-1,-8.088011742E-1,-1.709475517E0
2.854614423E1,1.235574007E0,5.099625587E-1,-1.580343246E0
2.856496907E1,1.723869801E0,2.070145130E0,-1.532824755E0
2.858379391E1,2.153837919E0,2.543931484E0,-1.811373234E0
2.860261876E1,2.669439793E0,3.310463905E0,-1.893895864E0
2.862144365E1,3.646057606E0,3.349469185E0,-1.995731592E0
2.864026850E1,4.272691727E0,3.144217491E0,-2.278378963E0
2.865909334E1,4.173241615E0,2.475795746E0,-2.512557745E0
2.867791824E1,5.289606094E0,2.619737148E0,-1.376532793E0
2.869672995E1,8.440700531E0,3.160224915E0,4.177036285E-1
2.871556792E1,1.238214302E1,5.499603271E0,1.701784134E-1
2.873439282E1,1.135787773E1,7.796426296E0,-2.541040421E0
2.875320454E1,8.285133362E0,9.645370483E0,-3.763315201E0
2.877204251E1,4.656730175E0,1.056262970E1,-3.682167768E0
2.879086740E1,1.335434914E0,1.015546989E1,-4.109015465E0
2.880967912E1,-1.215406418E0,7.708693981E0,-4.022711754E0
2.882851714E1,-2.019689083E0,4.965850353E0,-3.188254595E0
2.884734199E1,1.113122463E0,4.264513969E0,-1.439511538E0
2.886615376E1,4.661520481E0,5.256856918E0,-1.187332153E0
2.888499173E1,3.505476713E0,5.911865711E0,-1.733962417E0
2.890381657E1,-2.484197617E-1,5.688187122E0,-1.388894796E0
2.892262834E1,-2.010091305E0,5.680747986E0,-1.469751358E0
2.894146631E1,-5.104871273E0,8.648081779E0,-1.440758348E0
2.896029120E1,-5.893018723E0,1.311053658E1,-1.869223356E0
2.897911605E1,-4.944044113E0,1.299906826E1,-2.301718712E0
2.899794094E1,-4.068696022E0,1.129242897E1,-3.207508564E0
2.901676579E1,-4.574353218E0,1.126525879E1,-4.438458920E0
2.903557756E1,-7.460357666E0,1.222304726E1,-6.576012611E0
2.905441553E1,-1.014291000E1,1.152970695E1,-9.967556953E0
2.907324042E1,-1.151109505E1,9.438165665E0,-1.214251137E1
2.909205214E1,-1.135473919E1,6.385872841E0,-1.212982082E1
2.911089011E1,-1.091222954E1,2.742541790E0,-1.184328651E1
2.912971501E1,-1.016573715E1,1.386202335E0,-1.052686310E1
2.914852673E1,-7.855762482E0,1.503345490E0,-6.899307251E0
2.916736469E1,-5.533047676E0,1.685797215E0,-7.112508774E0
2.918618959E1,-6.115825653E0,1.378991485E0,-8.323408127E0
2.920500136E1,-5.298326492E0,-1.135620475E0,-1.054327106E1
2.922383933E1,-1.775233269E0,-3.412290096E0,-8.899139404E0
2.924266417E1,7.297486663E-1,-1.031620026E0,-6.304730892E0
2.926147594E1,-2.965768576E-1,6.844344735E-1,-3.801758289E0
2.928031391E1,-1.512746811E0,4.984451532E-1,-2.947629452E0
2.929913876E1,-6.526430845E-1,-8.715730906E-2,-1.761603832E0
2.931796365E1,3.587930202E-1,-2.145904899E-1,2.825241089E-1
2.933678850E1,-4.751232862E-1,7.382351160E-1,-1.995468140E-1
2.935561339E1,-2.080707550E0,9.573810697E-1,-6.997299194E-2
2.937442511E1,-4.137948990E0,1.081561327E0,-7.579879761E-1
2.939326308E1,-4.768602371E0,5.853423476E-1,-8.083009720E-1
2.941208798E1,-5.205651283E0,1.112635493E0,-1.160881042E0
2.943091282E1,-4.637591362E0,7.771620750E-1,-1.187000275E0
2.944973772E1,-3.756064415E0,2.669399977E-1,-4.877691269E-1
2.946856256E1,-2.795868158E0,1.048524499E0,6.860752106E-1
2.948737433E1,-3.723030090E-1,1.309525013E0,2.141485214E-1
2.950621230E1,3.374678373E0,2.402833223E0,-1.341619492E-1
2.952503719E1,2.457144737E0,1.147311807E0,-2.456830025E0
2.954384891E1,-2.278166533E0,-7.909274101E-2,-5.309521675E0
2.956268688E1,-7.820829391E0,-1.098218203E0,-7.982503414E0
2.958151178E1,-1.115261555E1,-2.179330349E0,-8.843757629E0
2.960032355E1,-1.219943810E1,-2.123827934E0,-8.049478531E0
2.961916152E1,-1.221421432E1,-7.833447456E-1,-7.629912376E0
2.963798636E1,-1.205226994E1,7.125766277E-1,-6.704488754E0
2.965679813E1,-1.137844372E1,3.200396538E0,-2.817515373E0
2.967563610E1,-9.359809875E0,3.852101326E0,-4.302692413E-1
2.969446100E1,-6.078645229E0,1.980443716E0,1.089550018E0
2.971328584E1,-4.588204861E0,2.129124403E0,1.779115677E0
2.973211074E1,-6.483469486E0,1.096857309E0,1.409053802E0
2.975093563E1,-6.189435005E0,8.373879194E-1,-8.775997162E-1
2.976974735E1,-4.035447121E0,3.286715984E0,-2.178693295E0
2.978858537E1,-2.510413885E0,6.674663067E0,-2.150618553E0
2.980741022E1,-1.998939514E0,7.741819859E0,-8.950433731E-1
2.982622199E1,-1.138305664E-1,5.668465614E0,-1.643225193E0
2.984505995E1,7.353560925E-1,4.803590298E0,-2.183516026E0
2.986388485E1,2.761878967E-1,4.940592289E0,-1.655538559E0
2.988270969E1,-7.994129658E-1,4.517924309E0,-1.563021183E0
2.990153459E1,-9.403333664E-1,4.505360603E0,-1.836083412E0
2.992035949E1,-2.339136124E0,5.026175976E0,-1.526170731E0
2.993918433E1,-3.955765486E0,4.801071167E0,-1.444268227E0
2.995800922E1,-3.967535257E0,3.681908131E0,-1.450596333E0
2.997683407E1,-3.330571890E0,3.825320721E0,-1.275350571E0
2.999565896E1,-2.700925350E0,3.801440716E0,-9.447097778E-1
3.001448381E1,-2.647646666E0,3.558802128E0,-7.193794250E-1
3.003330870E1,-2.057374477E0,4.077505589E0,-1.689491272E-1
3.005213355E1,-1.012100697E0,3.991593838E0,5.257067680E-1
3.007095844E1,-1.166679859E-1,3.554204941E0,1.059396267E0
3.008978329E1,2.757124901E-1,3.476794720E0,4.812130928E-1
3.010860818E1,2.881085873E-1,4.170198441E0,9.315776825E-1
3.012743303E1,7.594043016E-1,4.759130478E0,1.898637295E0
3.014625792E1,1.733660221E0,4.555704594E0,1.803545475E0
3.016508277E1,2.376144409E0,4.305402279E0,1.284228802E0
3.018390766E1,2.975065231E0,4.097764492E0,1.007954597E0
3.020273251E1,3.537019730E0,3.996869564E0,9.290275574E-1
3.022155740E1,3.628189087E0,3.854060650E0,6.695871353E-1
3.024038225E1,3.279678345E0,4.164749622E0,1.622977257E-1
3.025920714E1,2.992897749E0,3.528769970E0,1.187071800E-1
3.027803199E1,2.871893406E0,2.353213787E0,2.457141876E-2
3.029685688E1,2.510192871E0,1.123582363E0,-1.316151619E-1
3.031568178E1,2.061028719E0,6.311254501E-1,-1.064955235E0
3.033450662E1,1.576722622E0,1.081734180E0,-2.001597404E0
3.035333152E1,1.403619885E0,1.416526794E0,-2.618002415E0
3.037215636E1,1.634958506E0,1.698114395E0,-2.548227787E0
3.039098126E1,1.402166963E0,1.963221073E0,-2.266700268E0
3.040980615E1,7.608232498E-1,7.928252220E-1,-4.308168411E0
3.042863100E1,-3.493441343E-1,-2.899441719E-1,-5.059170723E0
3.044745589E1,-6.492512226E-1,-8.932471275E-1,-4.090051174E0
3.046628074E1,-8.979989290E-1,-1.120836258E0,-3.724276066E0
3.048510563E1,-1.884521246E0,-1.848027706E0,-2.513563633E0
3.050391740E1,-2.768471718E0,-3.516351461E0,-2.263205528E0
3.052275537E1,-3.771347046E0,-4.316452980E0,-3.283802509E0
3.054158027E1,-4.016098022E0,-3.790152550E0,-3.702600956E0
3.056039199E1,-4.481828690E0,-1.738797903E0,-1.933497429E0
3.057923001E1,-5.287028313E0,-9.614548683E-1,2.680282593E-1
3.059805485E1,-6.362381935E0,-1.322813511E0,-1.799173355E-1
3.061686662E1,-7.588032722E0,-1.203443050E0,-1.830482006E0
3.063570464E1,-7.759141445E0,-5.321164131E-1,-2.769007206E0
3.065452949E1,-5.453654766E0,9.813466072E-1,-2.760112286E0
3.067334126E1,-3.100485325E0,2.152406216E0,-1.544521809E0
3.069217928E1,-2.538222790E0,2.461255550E0,-1.031538486E0
3.071100412E1,-3.237429857E0,2.340827465E0,-1.785025120E0
3.072982902E1,-3.540395498E0,2.512397766E0,-2.804337740E0
3.074865386E1,-3.159916401E0,3.183678627E0,-3.162111759E0
3.076747876E1,-2.834029675E0,4.188772202E0,-3.168588638E0
3.078630365E1,-3.293879032E0,4.777299881E0,-3.558228254E0
3.080512850E1,-4.144907951E0,4.648404121E0,-4.468340874E0
3.082395339E1,-3.929705381E0,3.576059341E0,-5.153063774E0
3.084276516E1,-2.358756542E0,3.519219398E0,-5.843974113E0
3.086160313E1,3.420843482E-1,3.778295517E0,-5.578985214E0
3.088042803E1,2.933831215E0,3.794245720E0,-4.956374168E0
3.089925292E1,4.030115128E0,2.794024467E0,-4.755401134E0
3.091807777E1,3.982785225E0,7.411508560E-1,-5.074666023E0
3.093690266E1,3.448529005E0,-4.435806274E-1,-5.325521946E0
3.095571443E1,2.608506680E0,-2.304496765E-1,-5.886608124E0
3.097455240E1,1.375777364E0,3.561887741E-1,-5.724316120E0
3.099337730E1,7.857942581E-1,1.411234856E0,-4.632040501E0
3.101218907E1,1.185840845E0,2.255352020E0,-2.779224396E0
3.103102709E1,1.617125988E0,3.901799202E0,-1.827048063E-1
3.104985193E1,2.246658325E0,5.190675735E0,1.864488482E0
3.106867683E1,2.027374268E0,5.900968552E0,3.117002010E0
3.108750173E1,1.738525867E0,4.948287964E0,3.280998468E0
3.110632662E1,1.600548267E0,3.460031509E0,3.126727581E0
3.112515147E1,2.052878141E0,2.453040123E0,3.010065556E0
3.114397636E1,2.450300932E0,1.483838081E0,2.114838123E0
3.116280126E1,2.392217159E0,6.281108856E-1,1.371389389E0
3.118162615E1,2.117432356E0,2.239751816E-1,7.161653042E-1
3.120045100E1,1.207532406E0,4.027810097E-1,1.796371937E-1
3.121927589E1,7.844152451E-1,5.512599945E-1,-5.716288090E-1
3.123810079E1,9.365820885E-1,5.718502998E-1,-1.298171639E0
3.125692568E1,1.180153847E0,2.748122215E-1,-1.865055203E0
3.127575053E1,1.151017666E0,3.517103195E-2,-1.958404660E0
3.129457542E1,3.985404968E-1,2.763471603E-1,-1.572458148E0
3.131340032E1,-2.778100967E-2,-1.501417160E-1,-9.262220860E-1
3.133222522E1,4.430489540E-1,-9.094114304E-1,-3.180766106E-1
3.135105006E1,1.152698517E0,-1.785866737E0,-3.794925213E-1
3.136987495E1,1.262077332E0,-2.428494453E0,-4.906680584E-1
3.138869985E1,1.279592514E0,-2.612005711E0,-3.800513744E-1
3.140752475E1,1.311524868E0,-1.813632965E0,9.690546989E-2
3.142634964E1,1.432591438E0,-7.680435181E-1,7.414722443E-1
3.144517449E1,1.154508114E0,3.717765808E-1,1.278715611E0
3.146399938E1,4.804167747E-1,7.639570236E-1,1.609467506E0
3.148282428E1,-2.441601753E-1,4.353065491E-1,1.820989370E0
3.150164917E1,-9.617581367E-1,-1.457486153E-1,1.670553923E0
3.152047402E1,-1.269150734E0,-8.829903603E-1,1.166178942E0
3.153929891E1,-1.188022137E0,-1.347153664E0,6.380262375E-1
3.155812381E1,-8.676295280E-1,-1.398651600E0,5.177564621E-1
3.157694870E1,-6.087598801E-1,-1.607469082E0,3.831861019E-1
3.159577360E1,-6.494264603E-1,-1.953615189E0,1.791250706E-1
3.161459844E1,-5.325965881E-1,-2.251336098E0,-1.946306229E-2
3.163342334E1,-9.610033035E-2,-1.899229050E0,4.494123459E-1
3.165224824E1,1.459493637E-1,-1.567724705E0,1.024923801E0
3.167107313E1,-1.974205971E-1,-4.866046906E-1,1.633700371E0
3.168989803E1,-5.949454308E-1,3.827948570E-1,2.292439461E0
3.170872287E1,-2.339429855E-1,8.008503914E-1,3.240549564E0
3.172754777E1,8.445849419E-1,8.966827393E-1,2.893744469E0
3.174637266E1,1.798600197E0,1.555646896E0,2.419850111E0
3.176519756E1,1.991559982E0,2.201846600E0,2.625037670E0
3.178402245E1,1.853012085E0,2.294825077E0,2.980360508E0
3.180284730E1,1.619113684E0,2.085155010E0,2.842129230E0
3.182167219E1,1.430535316E0,1.785205364E0,1.501677752E0
3.184049709E1,1.139359951E0,2.238023281E0,2.020459175E-1
3.185932199E1,6.077439785E-1,3.088853359E0,-1.459971428E0
3.187814688E1,3.355102539E-1,3.128964901E0,-2.620967627E0
3.189697172E1,1.081427932E0,1.416316032E0,-3.090195179E0
3.191578350E1,1.976623416E0,1.496429443E0,-3.807775974E0
3.193462152E1,2.396374464E0,1.948808670E0,-3.693422794E0
3.195344641E1,2.258450747E0,2.562068939E0,-4.445470810E0
3.197227131E1,2.024872541E0,3.720464706E0,-4.725927830E0
3.199109615E1,1.653486133E0,4.569819450E0,-4.291925907E0
3.200992105E1,7.466844320E-1,4.775451660E0,-5.015349865E0
3.202874594E1,5.020028353E-2,5.473844528E0,-5.104296684E0
3.204757084E1,-5.221153498E-1,5.812695503E0,-4.535444260E0
3.206639574E1,-1.037945867E0,5.785010338E0,-3.583511591E0
3.208520751E1,-2.604755163E0,5.517557621E0,-3.027966738E0
3.210404548E1,-4.137258053E0,5.361720562E0,-2.416465044E0
3.212287037E1,-4.666178703E0,5.523092747E0,-2.052273273E0
3.214169527E1,-5.405460835E0,5.850763321E0,-1.934657574E0
3.216052016E1,-6.621933460E0,5.573979855E0,-1.888981342E0
3.217934506E1,-7.298068047E0,5.029254436E0,-1.733501434E0
3.219816995E1,-7.166084290E0,4.227976322E0,-2.534491062E0
3.221699480E1,-6.981916904E0,2.752697945E0,-3.238528728E0
3.223581969E1,-6.755920410E0,1.646378994E0,-2.723623276E0
3.225464459E1,-6.348849297E0,8.932328224E-1,-2.101797104E0
3.227346949E1,-5.910929203E0,5.159993172E-1,-1.915224552E0
3.229229438E1,-5.490764141E0,3.529329300E-1,-1.838314056E0
3.231111928E1,-5.294901848E0,3.047146797E-1,-1.517906666E0
3.232994417E1,-5.357291698E0,1.780786514E-1,-1.357831478E0
3.234876902E1,-5.029478550E0,1.351079941E-1,-1.161981583E0
3.236759391E1,-4.101175308E0,-8.023202419E-1,-4.990282059E-1
3.238641881E1,-3.388624668E0,-2.356173515E0,7.004585266E-1
3.240524370E1,-2.966266870E0,-3.564502716E0,1.273201942E0
3.242406860E1,-2.553122044E0,-3.708552361E0,1.457994461E0
3.244289350E1,-1.784059048E0,-3.499599218E0,1.715179443E0
3.246171839E1,-1.167298913E0,-3.030818224E0,2.416108131E0
3.248054329E1,-1.027090907E0,-2.718676567E0,2.475318909E0
3.249936813E1,-1.575089335E0,-1.769063711E0,1.507995605E0
3.251819303E1,-1.917009592E0,-1.286277533E0,1.033945084E-1
3.253701792E1,-1.189947009E0,-1.326950669E0,-1.084784508E0
3.255584282E1,-2.310466766E-2,-1.438416243E0,-1.996745110E0
3.257466772E1,8.318400383E-1,-1.099439740E0,-2.087677479E0
3.259349261E1,5.115518570E-1,-2.023026943E-1,-2.176017284E0
3.261231751E1,-5.106240511E-1,7.437479496E-1,-2.545158863E0
3.263115370E1,-7.251509428E-1,1.598919392E0,-2.587967396E0
3.264996730E1,-2.138024569E-1,2.601912022E0,-2.393754005E0
3.266879219E1,4.379084110E-1,2.526897430E0,-2.287862301E0
3.268761704E1,1.030385733E0,1.524225473E0,-1.872371197E0
3.270644199E1,8.535439968E-1,1.522987366E0,-1.136363983E0
3.272526683E1,3.096418381E-1,2.059523821E0,-3.969240189E-1
3.274409173E1,4.292351007E-1,2.226243258E0,-4.593315125E-1
3.276290350E1,1.782414079E0,2.220453024E0,-1.294743538E0
3.278174152E1,4.330182076E0,2.044087410E0,-3.323282242E0
3.280056641E1,7.408279896E0,1.945294619E0,-6.268828392E0
3.281937818E1,1.005027771E1,2.391520023E0,-7.006504536E0
3.283821620E1,1.274238873E1,3.208901644E0,-4.775038242E0
3.285704110E1,1.373147964E1,5.954848289E0,-5.385754108E0
3.287585287E1,1.097634125E1,8.962753296E0,-9.739956856E0
3.289469089E1,5.286715508E0,1.122757149E1,-1.098778343E1
3.291351579E1,5.201652050E-1,1.238176632E1,-1.209884262E1
3.293232756E1,-3.729173183E0,1.198522854E1,-9.467834473E0
3.295116558E1,-4.657543182E0,1.128993893E1,-4.281222343E0
3.296999048E1,-1.789319038E0,9.907073975E0,3.826794624E-1
3.298881537E1,9.088993073E-1,9.790287018E0,2.094166279E0
3.300764027E1,3.574495316E-1,1.089375877E1,3.943645954E0
3.302646516E1,-3.119246483E0,1.205850220E1,4.275659084E0
3.304527693E1,-7.170969963E0,1.453020382E1,2.787911892E0
3.306411495E1,-1.060270500E1,1.557836819E1,6.755118370E-1
3.308293985E1,-1.326003647E1,1.474748325E1,-2.383476973E0
3.310175162E1,-1.499225235E1,1.403211594E1,-5.434525013E0
3.312058964E1,-1.584641361E1,1.286670876E1,-7.987646103E0
3.313941454E1,-1.603883934E1,1.036026573E1,-1.027827358E1
3.315822636E1,-1.535284901E1,7.063010693E0,-1.236173820E1
3.317706433E1,-1.450774384E1,4.005928516E0,-1.284680748E1
3.319588922E1,-1.270842075E1,1.780335784E0,-1.124445820E1
3.321470105E1,-1.078637981E1,1.072967887E0,-9.927929878E0
3.323353902E1,-8.720854759E0,4.942828417E-1,-9.038405418E0
3.325236391E1,-7.271594048E0,3.078120947E-2,-8.462410927E0
3.327117574E1,-5.029992580E0,-3.774678409E-1,-6.722837448E0
3.329001376E1,-1.526471972E0,-1.273084283E-1,-3.495566845E0
3.330883865E1,1.671421528E-1,-2.232701033E-1,-2.135563374E0
3.332766355E1,8.247154951E-2,-2.489796877E-1,-1.955049515E0
3.334648844E1,1.610912085E-1,-6.317679882E-1,-1.681637764E0
3.336531334E1,-4.779714942E-1,1.726120412E-1,-7.867212296E-1
3.338413824E1,-1.563104391E0,6.563243270E-1,1.055622101E0
3.340296313E1,-2.674005508E0,7.419666052E-1,4.435930252E-1
3.342178803E1,-2.805975914E0,-5.162456036E-1,-8.181152344E-1
3.344059980E1,-2.036430359E0,-5.574901104E-1,9.847640991E-2
3.345943782E1,-2.051210642E0,-7.199627161E-2,1.828950882E0
3.347826272E1,-2.204871178E0,2.662608624E-1,4.951286316E-1
3.349708761E1,-2.385371685E0,3.680258989E-2,-4.263715744E-1
3.351591251E1,-2.617251396E0,-3.208854198E-1,-1.266819000E0
3.353473740E1,-2.401597738E0,7.335859537E-2,-1.373349190E0
3.355356230E1,-2.588026762E0,4.697452784E-1,-5.306177139E-1
3.357238719E1,-3.460932970E0,7.853354812E-1,-3.435611725E-1
3.359121209E1,-4.055581093E0,2.756896615E-1,-8.995246887E-1
3.361003699E1,-4.556842327E0,5.818794370E-1,-1.663434505E0
3.362886188E1,-4.433336258E0,5.115592480E-1,-1.823517799E0
3.364768678E1,-2.380278587E0,1.182199717E0,-1.006205559E0
3.366651167E1,-9.943964481E-1,6.654158831E-1,7.784461975E-1
3.368533662E1,-8.493468761E-1,8.019601703E-1,1.187122345E0
3.370416152E1,-7.470183372E-1,8.764007092E-1,1.167460442E0
3.372298641E1,7.353003025E-1,1.253225684E0,1.985371590E0
3.374181131E1,2.419326067E0,1.890230179E0,2.723736763E0
3.376063620E1,1.391434193E0,1.817751527E0,1.786416054E0
3.377944798E1,-3.064252615E0,8.963301182E-1,-2.639352322E0
3.379828600E1,-7.387819290E0,-9.788942337E-2,-5.125652790E0
3.381711089E1,-1.026672649E1,-7.766628265E-1,-6.063988686E0
3.383593579E1,-1.118848133E1,-8.569848537E-1,-5.891139030E0
3.385476074E1,-1.080986118E1,-1.209898233E0,-5.937633991E0
3.387358563E1,-1.062066269E1,-1.000514030E0,-5.575985909E0
3.389241053E1,-1.045092106E1,-3.420221806E-1,-5.497757435E0
3.391123542E1,-9.394180298E0,-2.126216888E-1,-5.601217747E0
3.393006032E1,-8.454433441E0,8.747272491E-1,-4.201107979E0
3.394888527E1,-7.588347435E0,1.966010928E0,-3.367990017E0
3.396771016E1,-5.774571896E0,2.520765781E0,-2.604437828E0
3.398653506E1,-5.438119411E0,4.021354675E0,-1.769877911E0
3.400535995E1,-6.257416248E0,5.052776814E0,-2.940073967E0
3.402418485E1,-5.810356140E0,5.074041367E0,-3.080530643E0
3.404300980E1,-4.849513531E0,6.408960342E0,-1.456422806E0
3.406183469E1,-3.322867870E0,6.769089699E0,-6.893200874E-1
3.408065959E1,-2.906124115E0,6.270079613E0,-7.008185387E-1
3.409948449E1,-3.441595078E0,5.633399963E0,-2.314424515E-1
3.411830938E1,-4.233590126E0,5.146323204E0,-2.052769661E-1
3.413713433E1,-4.302910328E0,5.783624649E0,-5.792617798E-2
3.415595923E1,-3.304702759E0,5.270887375E0,1.647319794E-1
3.417478412E1,-2.925858974E0,4.670022964E0,4.790782928E-1
3.419360907E1,-2.974535942E0,3.870466232E0,4.941258430E-1
3.421243396E1,-2.872641563E0,3.563214302E0,1.760549545E-1
3.423125886E1,-2.754131317E0,3.470489025E0,-2.464790344E-1
3.425008376E1,-2.469859123E0,3.360214233E0,-8.127751350E-1
3.426890865E1,-1.754879951E0,3.634752274E0,-1.156768322E0
3.428772048E1,-3.241524696E-1,3.865684032E0,-5.409994125E-1
3.430655850E1,1.497901201E0,3.198045254E0,-2.040052414E-2
3.432538339E1,1.655164003E0,3.042705536E0,-5.797820091E-1
3.434420829E1,1.161382437E0,3.558534145E0,-1.525220394E0
3.436303318E1,9.898571968E-1,4.098443031E0,-1.685786247E0
3.438185808E1,1.065037251E0,3.945883274E0,-1.735823154E0
3.440068303E1,1.123218775E0,3.113295078E0,-1.424489021E0
3.441950792E1,1.500621080E0,2.595763683E0,-1.095334053E0
3.443833282E1,1.992165565E0,2.769538879E0,-2.527213097E-1
3.445714464E1,2.577681541E0,2.928516388E0,-3.630971909E-1
3.447598261E1,5.267687321E0,3.967210293E0,1.192624569E0
3.449480756E1,4.189686775E0,5.551518917E0,3.947888851E0
3.451361933E1,4.943780899E-1,3.259271622E0,1.317014694E-1
3.453245735E1,-7.709574699E-1,2.529693127E0,-1.553996086E0
3.455128225E1,2.878322601E-1,1.333170414E0,-2.472424507E-1
3.457009407E1,2.524204731E0,5.484580994E-3,7.455682755E-1
3.458893209E1,3.166218042E0,2.657852173E-1,5.728750229E-1
3.460775699E1,2.422711372E0,1.375968933E0,-7.399773598E-1
3.462656881E1,1.833816290E0,3.135041714E0,-1.900116920E0
3.464540683E1,1.837518930E0,3.566575527E0,-2.123191357E0
3.466423172E1,2.199252129E0,2.051536560E0,-1.622086048E0
3.468304350E1,2.197852135E0,-1.562023163E-2,-1.202179909E0
3.470188152E1,1.509033918E0,-1.311503887E0,-1.045472622E0
3.472070646E1,4.540984631E-1,-2.127913475E0,-8.584995270E-1
3.473953136E1,-5.981774330E-1,-2.799963713E0,-5.937318802E-1
3.475835626E1,-7.570347786E-1,-2.764710903E0,1.878356934E-2
3.477718120E1,-4.818801880E-1,-1.668072224E0,9.162812233E-1
3.479600610E1,-3.207774162E-1,-6.450967789E-1,1.517413616E0
3.481483100E1,-4.468226433E-1,-3.483700752E-1,1.711768150E0
3.483365589E1,-5.715770721E-1,-1.182823181E-1,1.515662670E0
3.485248079E1,-1.069811344E0,1.233119965E-1,1.270376205E0
3.487130574E1,-2.316293240E0,-1.112480164E-1,-1.839733124E-1
3.489013063E1,-2.278009415E0,1.055059433E0,-2.360124588E0
3.490894245E1,-5.042858124E-1,2.619003773E0,-1.595669270E0
3.492778048E1,9.923899174E-1,4.685298920E0,-4.542994499E-1
3.494660537E1,2.286185980E0,6.868352413E0,2.125507832E0
3.496541714E1,2.833390474E0,7.744077206E0,5.205893040E0
3.498425516E1,4.473766804E0,6.190818310E0,8.678998947E0
3.500308011E1,6.771932602E0,3.027728558E0,8.937595367E0
3.502189188E1,7.393387318E0,-6.381354332E-1,3.393612385E0
3.504072990E1,5.685611248E0,1.464974403E0,-8.946022987E-1
3.505955485E1,6.026802063E0,4.498623371E0,-1.942551613E0
3.507836662E1,6.010249138E0,6.860310555E0,-1.655574799E0
3.509720464E1,6.164609909E0,7.477836609E0,-1.808055401E0
3.511602959E1,6.333875179E0,7.375161171E0,-2.866533756E0
3.513484136E1,4.562504292E0,7.948106289E0,-3.808395863E0
3.515367938E1,3.026686311E-1,8.457206726E0,-5.077580452E0
3.517250433E1,-3.090918779E0,8.035940170E0,-7.501018047E0
3.519131610E1,-3.175088167E0,6.434658051E0,-9.848023415E0
3.521015412E1,-1.890504003E0,6.331522465E0,-9.784833908E0
3.522897907E1,-1.117956758E0,6.676212788E0,-8.035859108E0
3.524780396E1,-2.742195427E-1,6.793927193E0,-7.021942139E0
3.526662886E1,1.237958223E-1,7.786452770E0,-6.290106773E0
3.528545381E1,-9.067789465E-2,8.801945686E0,-5.905622482E0
3.530427870E1,-6.492446065E-1,8.852993011E0,-6.525783539E0
3.532310360E1,-1.498216629E0,8.908538818E0,-7.428523540E0
3.534192855E1,-2.152058125E0,8.967350006E0,-8.175687790E0
3.536075344E1,-2.446813345E0,8.930696487E0,-8.520071030E0
3.537957834E1,-2.371679544E0,8.444078445E0,-8.465358734E0
3.539840329E1,-1.915595055E0,7.990836620E0,-8.392874718E0
3.541722818E1,-1.170691252E0,8.486177444E0,-8.377758026E0
3.543605313E1,-7.709376812E-1,9.853570938E0,-8.328650475E0
3.545487803E1,-6.221828461E-1,1.092333984E1,-8.546824455E0
3.547370298E1,-6.375352144E-1,1.065753746E1,-9.087622643E0
3.549252787E1,-8.801907897E-1,1.001533699E1,-9.503599167E0
3.551135277E1,-1.157303333E0,9.758697510E0,-9.443918228E0
3.553017772E1,-1.984273791E0,1.026822662E1,-9.226388931E0
3.554900261E1,-3.182717562E0,1.061259747E1,-8.746709824E0
3.556782756E1,-3.889186382E0,1.035023880E1,-8.172456741E0
3.558665245E1,-4.086037636E0,9.662551880E0,-7.584154606E0
3.560547740E1,-4.222737312E0,8.397300720E0,-7.110944748E0
3.562430230E1,-4.222686768E0,6.408082008E0,-6.507730961E0
3.564312719E1,-4.265316486E0,4.743571281E0,-6.102683544E0
3.566195214E1,-4.562654972E0,3.837779045E0,-5.954804897E0
3.568077704E1,-4.755618095E0,3.215592384E0,-5.782351494E0
3.569960199E1,-4.598778725E0,2.943335533E0,-5.728404045E0
3.571842688E1,-4.060891628E0,2.520329475E0,-5.327785969E0
3.573725183E1,-3.538858414E0,2.163673401E0,-5.407628059E0
3.575607672E1,-3.536050558E0,1.852007866E0,-5.398725986E0
3.577490162E1,-3.607635260E0,1.586322784E0,-5.473625183E0
3.579372657E1,-3.645795107E0,1.533088684E0,-5.330245972E0
3.581255147E1,-3.636660099E0,1.925877571E0,-4.808417320E0
3.583137641E1,-3.621527433E0,2.477035522E0,-4.162593842E0
3.585020131E1,-3.282053471E0,2.896947861E0,-3.383430243E0
3.586902620E1,-2.543607473E0,3.008083344E0,-2.548317194E0
3.588785115E1,-1.715693712E0,3.244288445E0,-1.999830842E0
3.590667605E1,-1.388139009E0,3.298137665E0,-1.938280940E0
3.592550100E1,-1.796337485E0,3.367431641E0,-2.340653181E0
3.594432589E1,-2.464277506E0,2.932013512E0,-3.359658003E0
3.596315084E1,-3.129431248E0,2.377717018E0,-3.867911577E0
3.598197574E1,-3.224033833E0,2.254276276E0,-4.036651611E0
3.600080063E1,-3.330312729E0,2.842129707E0,-3.828783751E0
3.601962558E1,-3.207008600E0,3.676166534E0,-3.858809233E0
3.603845048E1,-3.061459780E0,3.930063248E0,-4.278403282E0
3.605727542E1,-3.081640720E0,3.059442520E0,-4.737415791E0
3.607610032E1,-3.549599171E0,2.477574348E0,-4.633853436E0
3.609492522E1,-3.378983498E0,1.868282318E0,-3.563528776E0
3.611375016E1,-3.743878365E0,1.780343056E0,-3.447691202E0
3.613257506E1,-4.281470299E0,1.426767349E0,-3.609912634E0
3.615140001E1,-4.954719067E0,1.122557640E0,-3.628488779E0
3.617022490E1,-5.795784950E0,1.131163597E0,-4.103227139E0
3.618904985E1,-6.599393845E0,9.316444397E-1,-5.139681339E0
3.620787475E1,-6.747797966E0,1.349426270E0,-5.911774635E0
3.622669969E1,-5.573513031E0,1.555251122E0,-4.755431175E0
3.624552459E1,-4.292510986E0,1.942010880E0,-3.073063374E0
3.626434954E1,-3.555737972E0,1.916539192E0,-1.529911518E0
3.628317443E1,-3.391222954E0,1.704106331E0,-1.291580439E0
3.630199933E1,-4.009000778E0,1.601002693E0,-1.404506207E0
3.632082428E1,-4.801110744E0,1.420435905E0,-1.486047029E0
3.633964917E1,-5.168136120E0,1.239538193E-1,-8.672564030E-1
3.635847412E1,-5.163731575E0,-5.594320297E-1,-2.013254166E-2
3.637729902E1,-4.852585793E0,-1.102085114E-1,7.794704437E-1
3.639612396E1,-4.062727928E0,3.761520386E-1,9.739828110E-1
3.641494886E1,-2.600029469E0,1.026542664E0,2.163058281E0
3.643376068E1,-9.103837013E-1,1.527944565E0,3.871188164E0
3.645259870E1,3.966019452E-1,8.696222305E-1,3.299429893E0
3.647142365E1,5.086422563E-1,1.718416214E-1,1.195768356E0
3.649023542E1,1.827961504E-1,4.927434921E-1,-6.695349216E-1
3.650907350E1,2.925596535E-1,1.099657059E0,-1.344648123E0
3.652789839E1,9.044843316E-1,1.386847496E0,-1.327287436E0
3.654672334E1,1.414728165E0,1.600935936E0,-1.023278952E0
3.656554824E1,1.539849043E0,1.465435028E0,-1.548404694E-1
3.658437313E1,9.383404851E-1,7.013320923E-1,5.270261765E-1
3.660318495E1,1.175291538E-1,-9.106283188E-1,-1.734256744E-3
3.662202298E1,-8.603996038E-1,-2.150112629E0,-2.169723511E-1
3.664084792E1,-1.471537948E0,-2.886333942E0,1.829419136E-1
3.665967282E1,-1.580904126E0,-2.653393269E0,2.090301514E-1
3.667849777E1,-1.287308693E0,-1.458101749E0,7.636508942E-1
3.669732266E1,-8.467004299E-1,-2.982096672E-1,1.638459682E0
3.671614761E1,-4.978638887E-1,5.327773094E-1,2.115547657E0
3.673497251E1,-3.937656879E-1,6.104369164E-1,2.331446648E0
3.675379745E1,-6.209850311E-1,2.648377419E-1,2.436899185E0
3.677262235E1,-1.221585751E0,-1.120142937E-1,2.360819340E0
3.679144730E1,-1.999660969E0,-1.015915871E-1,2.156878471E0
3.681027219E1,-2.691356659E0,-1.921844482E-2,1.472436905E0
3.682909714E1,-2.659108162E0,-5.259432793E-1,1.015256882E0
3.684792209E1,-1.928794026E0,-1.281212807E0,3.672385216E-1
3.686674699E1,-1.257245183E0,-9.411749840E-1,-2.821259499E-1
3.688557193E1,-9.243056774E-1,2.493386269E-1,-1.569275379E0
3.690439683E1,-7.304382324E-1,1.586384296E0,-2.653220177E0
3.692322178E1,-1.834992468E-1,3.272748470E0,-2.761467695E0
3.694204667E1,-2.327938378E-2,3.017168522E0,-3.086398363E0
3.696087162E1,-3.286989629E-1,1.869253635E0,-2.915894508E0
3.697969652E1,-1.295783639E0,9.936213493E-1,-2.805516243E0
3.699850834E1,-3.780801535E0,-6.575541496E-1,-2.563204765E0
3.701734641E1,-5.404459000E0,-9.859066010E-1,-3.023761988E0
3.703617131E1,-5.448465347E0,-4.905219078E-1,-1.568577766E0
3.705499626E1,-4.507369995E0,1.498589516E-1,3.398232460E-1
3.707382115E1,-4.207375050E0,8.579640388E-1,9.270396233E-1
3.709264610E1,-4.832165241E0,9.026737213E-1,1.766519070E0
3.711147100E1,-5.694136620E0,1.249020576E0,5.707468987E-1
3.713029594E1,-5.333817959E0,1.481635094E0,6.242585182E-1
3.714912089E1,-4.505300522E0,2.135055542E0,1.586757660E0
3.716794579E1,-3.861855507E0,2.548802853E0,1.144968510E0
3.718677074E1,-1.994767904E0,3.208635330E0,2.186519623E0
3.720559563E1,2.093200684E-1,3.559429169E0,3.049391747E0
3.722442058E1,1.789301157E0,4.449479103E0,3.818641186E0
3.724324553E1,1.537285089E0,4.730923653E0,3.818837166E0
3.726207042E1,3.300333023E-2,4.755036354E0,3.047034740E0
3.728088225E1,-2.153759956E0,2.993267775E0,2.372986317E0
3.729972032E1,-3.975958824E0,2.644690514E0,8.354458809E-1
3.731854522E1,-3.337117195E0,3.744454861E0,5.796351433E-1
3.733735704E1,-3.816499710E-1,4.963861942E0,5.536389351E-1
3.735619506E1,1.922548056E0,5.496389866E0,-3.610844612E-1
3.737502001E1,5.101626873E0,5.781715870E0,-2.269959927E0
3.739383183E1,8.334392548E0,5.215388298E0,-1.596883297E0
3.741266985E1,7.544702053E0,2.595513821E0,-2.151737213E-1
3.743149480E1,4.868038654E0,1.150377989E0,-1.129881382E0
3.745030662E1,3.223407030E0,9.655960798E-1,-1.983366489E0
3.746914464E1,2.166780472E0,5.823860168E-1,-1.668453693E0
3.748796959E1,1.430242538E0,-3.319156170E-1,-8.886375427E-1
3.750679449E1,6.189560890E-1,-3.797328472E-1,-1.208885670E0
3.752561943E1,8.635544777E-2,8.977479935E-1,-1.523983479E0
3.754444438E1,1.822992206E0,2.345929384E0,-2.467434406E0
3.756325615E1,4.113748550E0,2.639449596E0,-2.367224216E0
3.758209423E1,5.424261093E0,1.366775513E0,-1.658114910E0
3.760091912E1,5.383389950E0,6.952280998E-1,-1.554777622E0
3.761974407E1,5.789590359E0,5.069069862E-1,-1.015521049E0
3.763856902E1,6.326935768E0,4.107055664E-1,4.695682526E-1
3.765739391E1,5.782395363E0,7.139697075E-1,1.084510803E0
3.767621886E1,5.474849701E0,1.735105753E0,7.071952820E-1
3.769504381E1,5.711010933E0,2.682426929E0,1.151256561E0
3.771386870E1,5.617429733E0,3.640412807E0,1.067420959E0
3.773269365E1,5.565522671E0,4.001090050E0,2.413911819E-1
3.775151860E1,6.144844055E0,3.597819805E0,-6.497554779E-1
3.777034350E1,7.213437080E0,3.476936340E0,-2.999310493E-1
3.778916844E1,8.451845169E0,4.393898964E0,1.818842888E-1
3.780799339E1,8.717253685E0,5.569238663E0,-5.396757126E-1
3.782681829E1,7.013795853E0,7.105014801E0,-1.223354816E0
3.784563011E1,4.097912788E0,7.775629997E0,-1.339035988E0
3.786446813E1,1.325181961E0,7.733227730E0,-1.376201630E0
3.788329308E1,-7.949562073E-1,5.852322578E0,-9.314746857E-1
3.790210490E1,-2.221565247E0,3.319826603E0,-3.151941299E-2
3.792094298E1,-2.824110985E0,2.765927792E0,2.573409081E-1
3.793976787E1,-2.334995270E0,2.844979286E0,7.328529358E-1
3.795859282E1,-1.690906525E0,2.412659168E0,1.151040554E0
3.797741777E1,-1.408932686E0,1.795433521E0,2.070558071E0
3.799624266E1,-1.163684368E0,1.626020908E0,2.981197834E0
3.801506761E1,-7.969722748E-1,1.697102070E0,2.987719059E0
3.803389256E1,-1.296383381E0,1.880416036E0,3.326210022E0
3.805271745E1,-1.774075031E0,1.869974613E0,3.216020584E0
3.807154240E1,-1.779156685E0,1.152614117E0,2.645766258E0
3.809036735E1,-2.001130581E0,7.770197392E-1,2.646905899E0
3.810919230E1,-2.620510578E0,8.870220184E-1,3.317061901E0
3.812801719E1,-3.018569946E0,6.451289654E-1,3.267165184E0
3.814684214E1,-2.951482296E0,7.445313931E-1,2.298985958E0
3.816566709E1,-3.173171520E0,1.821351051E-1,1.426074505E0
3.818449204E1,-3.666406631E0,-6.556251049E-1,3.754644394E-1
3.820331693E1,-3.273921490E0,-2.454395294E0,-9.855957031E-1
3.822214188E1,-2.024365902E0,-2.911241055E0,-2.390235662E0
3.824096683E1,-7.689676285E-1,-1.661721230E0,-2.542948008E0
3.825979172E1,-6.758809090E-1,-1.623892784E-1,-9.290437698E-1
3.827861667E1,-9.473958015E-1,-1.244139910E0,-1.199502468E0
3.829742850E1,-1.889365196E0,-2.980038404E0,-4.300025940E0
3.831626657E1,-2.918709278E0,-3.402696609E0,-7.210374832E0
3.833509152E1,-3.111773014E0,-2.089126587E0,-7.205721378E0
3.835390334E1,-2.028731346E0,-4.205226898E-1,-4.227685928E0
3.837274136E1,5.858063698E-1,7.262816429E-1,-2.326860428E-1
3.839156631E1,1.831472635E0,4.521732330E-1,2.687897682E0
3.841037813E1,3.558769226E-1,-5.971360207E-1,3.735858917E0
3.842921615E1,-1.551430225E0,-1.467310429E0,1.934613705E0
3.844804110E1,-3.602595329E0,-1.533026218E0,-4.294872284E-1
3.846685292E1,-5.303776264E0,-1.441660404E0,-6.281778812E-1
3.848569100E1,-4.527100563E0,-1.408528805E0,1.724332809E0
3.850451589E1,-1.306752682E0,-1.307194710E0,3.143335819E0
3.852332777E1,6.222920418E-1,-8.491225243E-1,3.990531445E0
3.854216579E1,2.040925026E0,3.455562592E-1,4.361498833E0
3.856099074E1,1.817180157E0,1.444204330E0,5.235929012E0
