"Time (s)","Linear Acceleration x (m/s^2)","Linear Acceleration y (m/s^2)","Linear Acceleration z (m/s^2)"
2.430032400E-2,-6.741052866E-1,2.588829994E-1,3.507504463E-1
4.312667800E-2,-7.590250969E-1,4.926376343E-1,2.124524117E-1
6.195303200E-2,-8.397110105E-1,6.322770119E-1,2.354478836E-2
8.077938700E-2,-8.831773996E-1,5.633783340E-1,-8.130025864E-2
9.960574100E-2,-5.565217733E-1,2.279396057E-1,-2.087497711E-2
1.184320950E-1,-4.156745672E-1,5.147266388E-2,2.583456039E-1
1.372584490E-1,-2.133206725E-1,-2.741260529E-1,4.363203049E-1
1.560848030E-1,-7.348740101E-2,-3.689737320E-1,5.734415054E-1
1.749111570E-1,-2.300630212E-1,-1.590681076E-1,5.255751610E-1
1.937375120E-1,-4.406970739E-1,-2.059316635E-2,3.561658859E-1
2.125638660E-1,-5.805104375E-1,2.887105942E-2,1.167325974E-1
2.313902200E-1,-4.855048060E-1,2.772951126E-2,-1.900620461E-1
2.502165740E-1,-2.282203436E-1,5.285263062E-2,-3.165502548E-1
2.690429280E-1,7.199600339E-2,1.962661743E-2,-3.623538017E-1
2.878692820E-1,4.013155103E-1,1.741986275E-1,-1.678647995E-1
3.066956370E-1,1.925237924E-1,-2.447328568E-1,-2.798104286E-1
3.255219910E-1,4.546215534E-1,-6.459388733E-1,-3.698487282E-1
3.443483450E-1,9.111220837E-1,-8.599333763E-1,-5.483446121E-1
3.631746990E-1,1.703646421E0,-5.559401512E-1,-1.122880936E0
3.819878760E-1,2.845489979E0,-5.333523750E-1,-1.728250980E0
4.011301160E-1,4.409843445E0,-1.301655769E-1,-1.806416512E0
4.203461050E-1,5.628815174E0,9.082460403E-2,-1.083708286E0
4.395487100E-1,5.846504211E0,3.558683395E-2,-3.244385719E-1
4.587513140E-1,4.986645699E0,1.849293709E-1,8.539247513E-2
4.779539180E-1,3.482682228E0,5.014724731E-1,5.001478195E-1
4.971565220E-1,1.753099680E0,8.618488312E-1,1.489943504E0
5.161256890E-1,1.995667815E-1,1.135962963E0,2.370570183E0
5.349651680E-1,-3.934799433E-1,8.207416534E-1,2.438609600E0
5.537915220E-1,-6.614871025E-1,9.276547432E-1,1.115110397E0
5.726047510E-1,-2.521546364E0,2.101303577E0,-4.024829865E-1
5.914442300E-1,-4.551003933E0,1.262117863E0,-1.339436531E0
6.102705850E-1,-4.628303051E0,-1.186315060E0,-6.738801003E-1
6.290969390E-1,-3.391927958E0,-1.811779499E0,5.168423653E-1
6.479232930E-1,-2.527039766E0,-7.840161324E-1,2.417702675E-1
6.667496470E-1,-2.520237684E0,-7.868728638E-1,-8.347511292E-1
6.855760010E-1,-2.606422901E0,-1.689917088E0,-1.197221279E0
7.044023030E-1,-1.963796139E0,-1.691690922E0,-6.631178856E-1
7.232286570E-1,-6.162412167E-1,-8.996043205E-1,4.688568115E-1
7.420419390E-1,7.092826366E-1,-8.367633820E-2,2.132671833E0
7.608814180E-1,1.127270222E0,2.559089661E-1,2.552103519E0
7.797077720E-1,1.046862841E0,-4.797496796E-1,1.850084782E0
7.985340740E-1,1.012605906E0,-1.070563316E0,8.655648232E-1
8.173604280E-1,9.825868607E-1,-9.802935123E-1,5.756030083E-1
8.361868350E-1,8.662843704E-1,-5.965371132E-1,5.078582764E-1
8.550131890E-1,7.596898079E-1,-3.358149529E-1,1.371669769E-1
8.738395430E-1,6.389489174E-1,-1.427507401E-1,-2.395334244E-1
8.926658970E-1,7.790155411E-1,2.600336075E-2,-5.281224251E-1
9.114922510E-1,1.215070724E0,-1.092300415E-1,-6.736040115E-1
9.303186050E-1,1.493325233E0,-2.151274681E-1,-6.333479881E-1
9.491449600E-1,1.138096809E0,-6.627750397E-2,-5.696549416E-1
9.679713140E-1,3.228006363E-1,1.140089035E-1,-4.812707901E-1
9.867976680E-1,-4.395465851E-1,1.858496666E-1,-3.462162018E-1
1.005624022E0,-5.535569191E-1,2.284240723E-2,1.418590546E-2
1.024450376E0,-2.733564377E-1,-9.624481201E-3,-2.959775925E-2
1.043276730E0,-1.896157265E-1,-6.901502609E-2,-1.370310783E-1
1.062103085E0,3.917121887E-2,-1.289606094E-2,-2.183628082E-1
1.080929439E0,2.939410210E-1,-1.152923107E-1,-2.430095673E-1
1.099755793E0,7.507882118E-1,-3.844475746E-1,-3.423213959E-2
1.118582147E0,1.297306538E0,-4.951848984E-1,4.666090012E-2
1.137408501E0,1.060622215E0,-3.019256592E-1,-3.710269928E-3
1.156234855E0,4.077425003E-1,-1.512565613E-1,-2.633128166E-1
1.175061210E0,6.431102753E-2,-2.412877083E-1,-1.041364670E-2
1.193887564E0,5.682482719E-1,-1.474843025E-1,5.137529373E-1
1.212713918E0,1.358189583E0,8.541154861E-2,1.970386505E-2
1.231540324E0,1.490361214E0,3.131165504E-1,-6.706466675E-1
1.250366678E0,5.893263817E-1,1.191680431E0,-1.211323977E0
1.269193032E0,2.762570381E-1,1.718863010E0,-1.318675995E0
1.288019387E0,5.605421066E-1,2.168491364E0,-2.015713692E0
1.306845741E0,7.124309540E-1,2.210493565E0,-3.303158045E0
1.325672095E0,9.423265457E-1,1.984191895E0,-3.165186405E0
1.344498449E0,1.931066513E0,1.832890034E0,-2.651602507E0
1.363311678E0,3.487161160E0,1.846842766E0,-2.587419033E0
1.382151157E0,3.780724525E0,2.801357269E0,-1.437810183E0
1.400977512E0,3.077870607E0,3.226980209E0,-6.690659523E-1
1.419803866E0,2.401092768E0,2.071009636E0,-2.121825457E0
1.438630220E0,8.296670914E-1,1.622597694E0,-1.492596865E0
1.457456574E0,-1.585150242E0,2.136722565E0,-1.226501465E-1
1.476282928E0,-3.435356140E0,1.957002640E0,2.806644440E-1
1.495109335E0,-3.203454018E0,1.470323086E0,-8.977603912E-2
1.513935689E0,-1.763347626E0,1.177811146E0,-1.490952969E0
1.532762043E0,-6.457910538E-1,1.208478451E0,-2.028650522E0
1.551588397E0,5.186986923E-2,1.388604164E0,-1.426982403E0
1.570414751E0,5.683178902E-1,6.805291176E-1,-1.913419485E0
1.589241105E0,-1.797919273E-1,5.736732483E-2,-1.480255127E0
1.608067460E0,-1.107377529E0,2.393579483E-2,-9.694383144E-1
1.626893814E0,-1.274167776E0,6.433916092E-2,-1.155498981E0
1.645720168E0,-9.441347122E-1,4.243144989E-1,-4.731421471E-1
1.664546522E0,-5.105113983E-1,-1.166667938E-1,-1.104111671E-1
1.683372876E0,-3.744094372E-1,-3.959293365E-1,-3.174133301E-1
1.702199282E0,-7.011764050E-1,-2.519044876E-1,-3.292381763E-1
1.721025637E0,-1.172896862E0,4.435768127E-1,-5.773766041E-1
1.739851991E0,-1.167097092E0,9.388399124E-1,-1.095860004E0
1.758678345E0,-9.005110264E-1,1.034366608E0,-1.739304304E0
1.777504699E0,-1.120842457E0,1.385253906E0,-1.565129757E0
1.796331053E0,-1.465330958E0,1.747574806E0,-1.350814581E0
1.815157407E0,-1.385882616E0,1.959543228E0,-1.680767298E0
1.833983762E0,-1.428956032E0,2.266884804E0,-1.320934296E0
1.852810116E0,-1.296765327E0,2.479006767E0,-6.091842651E-1
1.871636522E0,-4.411034584E-1,1.700002670E0,-4.231462479E-1
1.890462876E0,1.410241425E-1,-4.323577881E-1,-2.679264545E-1
1.909289230E0,-1.407864690E-2,-1.988055229E0,2.530839443E-1
1.928115585E0,-4.562051892E-1,-1.699010849E0,1.283510923E0
1.946941939E0,4.036965966E-2,9.797286987E-2,2.153216362E0
1.965768293E0,7.580440640E-1,2.193880081E0,2.119604588E0
1.984594647E0,1.252169371E0,2.848260880E0,1.900853634E0
2.003421001E0,1.481575131E0,2.950762749E0,1.707129478E0
2.022247355E0,1.533570886E0,2.093070984E0,1.355478048E0
2.041060637E0,1.591247559E0,1.018915176E-1,9.997332096E-1
2.059900116E0,1.453018665E0,-1.148108482E0,8.350143433E-1
2.078726470E0,1.421553731E0,-1.951042652E0,6.942563057E-1
2.097552824E0,1.789563537E0,-2.046942234E0,1.229348183E0
2.116379178E0,2.550266981E0,-1.516556740E0,2.518278599E0
2.135205532E0,2.806777716E0,-1.557465076E0,1.733865738E0
2.154031887E0,1.774905682E0,-1.154706001E0,2.546441555E-1
2.172858241E0,1.649802625E-1,-3.150167465E-1,-8.146171570E-1
2.191684647E0,-7.360799909E-1,-5.476188660E-2,-1.336871862E0
2.210511001E0,-2.770119607E-1,-3.126010895E-1,-1.139497042E0
2.229337355E0,5.952931643E-1,-3.553991318E-1,-2.967081070E-1
2.248163710E0,1.018275976E0,-2.968978882E-1,8.712203503E-1
2.266990064E0,8.563772440E-1,-3.848361969E-2,1.120616198E0
2.285816418E0,1.084022075E-1,2.074146271E-2,1.051153660E0
2.304642772E0,-5.666961670E-1,-4.311847687E-1,7.898609638E-1
2.323469178E0,-6.841338873E-1,-1.400449753E0,5.598533154E-1
2.342295532E0,-4.800781608E-1,-1.964806080E0,1.542654037E-1
2.361121887E0,-3.523632288E-1,-1.425163746E0,-1.925387383E-1
2.379948241E0,-4.861401320E-1,-8.546161652E-2,-3.758072853E-1
2.398774595E0,-7.639399767E-1,1.540611267E0,-9.501378536E-1
2.417600949E0,-8.239879608E-1,2.949373245E0,-1.737439632E0
2.436427355E0,-7.297432423E-1,4.236727715E0,-2.184857368E0
2.455253710E0,-2.967287898E-1,4.475865364E0,-2.241697550E0
2.474080064E0,-1.490893215E-2,3.448635101E0,-2.111555815E0
2.492893293E0,3.565960526E-1,1.539582253E0,-1.685508013E0
2.511732772E0,3.084327281E-1,-7.970714569E-2,-9.757514000E-1
2.530559126E0,-5.412573218E-1,-1.352107525E0,-7.834861279E-1
2.549385532E0,-1.663590312E0,-1.808315277E0,-8.212237358E-1
2.568211887E0,-1.911340952E0,-1.689895153E0,-4.364011288E-1
2.587038241E0,-9.814144969E-1,-1.337012768E0,-1.288871765E-1
2.605864595E0,-1.693739146E-1,-9.218559265E-1,1.218390465E-1
2.624691001E0,1.950132251E-1,-5.982055664E-1,2.426345348E-1
2.643517355E0,2.206103206E-1,-3.945970535E-1,1.090948582E-1
2.662343710E0,-6.249395013E-2,7.646369934E-2,-2.693531513E-1
2.681170064E0,-4.365124106E-1,4.895563126E-1,-7.416129112E-1
2.699996418E0,-9.055588245E-1,7.955865860E-1,-1.243381262E0
2.718822772E0,-1.295580983E0,6.569957733E-1,-1.789063931E0
2.737649178E0,-1.398017406E0,4.667549133E-1,-2.040052176E0
2.756475532E0,-1.205065250E0,1.910390854E-1,-2.187812328E0
2.775301887E0,-1.252779484E0,-3.365755081E-1,-1.933533192E0
2.794128241E0,-1.212934494E0,-6.002435684E-1,-1.251094818E0
2.812954647E0,-1.370043874E0,-5.035181046E-1,-5.800840855E-1
2.831781001E0,-2.023130417E0,-2.244176865E-1,-6.981968880E-2
2.850607355E0,-2.743125916E0,2.963237762E-1,4.119026661E-1
2.869433710E0,-3.322969198E0,6.778383255E-1,9.164080620E-1
2.888260064E0,-3.854639769E0,1.299088478E0,1.250286579E0
2.907086470E0,-3.954575777E0,1.148880005E0,1.464274406E0
2.925912824E0,-2.884675264E0,-3.277835846E-1,2.122137308E0
2.944726105E0,-9.307585955E-1,-2.090370655E0,2.396319151E0
2.963565585E0,5.129954815E-1,-2.067827225E0,2.206371069E0
2.982391939E0,1.737010598E0,-9.584674835E-1,1.983549118E0
3.001205168E0,2.245426655E0,1.149491310E0,1.580791235E0
3.020044647E0,2.125476837E0,1.971245766E0,1.571648359E0
3.038871053E0,2.216405869E0,4.916667938E-1,7.362108231E-1
3.057697407E0,2.667769194E0,-2.263450623E-1,1.292870045E-1
3.076523762E0,2.738255262E0,-1.451940536E-1,3.402013779E-1
3.095350116E0,2.529601097E0,-8.345861435E-1,1.422745228E0
3.114176522E0,2.522299290E0,-5.057010651E-1,2.133937359E0
3.133002876E0,2.161797523E0,6.833715439E-1,2.114341974E0
3.151829230E0,1.064783096E0,7.948818207E-1,2.144668341E0
3.170655637E0,-9.390902519E-2,-3.749227524E-1,2.325645685E0
3.189489693E0,-7.004324198E-1,-1.019513130E0,2.353959560E0
3.208316047E0,-7.527042627E-1,-1.266344070E0,1.883944750E0
3.227142401E0,-3.605738282E-1,-1.289226532E0,1.255241156E0
3.245968807E0,2.893126011E-2,-1.403409004E0,9.159541130E-1
3.264795162E0,3.358745575E-1,-2.281462193E0,3.846783638E-1
3.283621516E0,2.869658470E-1,-2.781314373E0,3.122901917E-2
3.302447922E0,4.229247570E-2,-2.668981075E0,-5.612049103E-1
3.321274276E0,-4.228748679E-1,-1.446400166E0,-9.892263412E-1
3.340087505E0,-1.068337202E0,7.323160172E-1,-9.981989861E-1
3.358927037E0,-1.826531649E0,2.637286186E0,-1.381897688E0
3.377753391E0,-1.989643455E0,2.448866844E0,-1.757816434E0
3.396579745E0,-1.281714201E0,1.310122490E0,-1.691757679E0
3.415406151E0,-3.282921910E-1,9.492321014E-1,-1.453971148E0
3.434232505E0,4.326742887E-1,1.371981621E0,-1.432105541E0
3.453058859E0,8.233878016E-1,1.784473419E0,-1.391052723E0
3.471885266E0,1.009775400E0,1.662007332E0,-9.110753536E-1
3.490711620E0,8.921290636E-1,9.067611694E-1,-4.485146999E-1
3.509537974E0,4.706273079E-1,6.235923767E-1,-3.273625374E-1
3.528364380E0,9.092062712E-2,6.537218094E-1,-2.545671463E-1
3.547190734E0,-1.220347881E-1,4.594230652E-2,9.802341461E-2
3.566017089E0,-2.603467703E-1,-4.190683365E-1,5.690097809E-3
3.584843495E0,-3.381940424E-1,-5.775928497E-1,-3.127648830E-1
3.603669849E0,-4.972768426E-1,-7.175655365E-1,-7.414150238E-1
3.622496203E0,-6.163610816E-1,-7.220335007E-1,-7.645995617E-1
3.641322609E0,-4.605090618E-1,-3.530902863E-1,-4.453940392E-1
3.660148964E0,-3.121507764E-1,2.418651581E-1,2.698111534E-2
3.678975370E0,-3.436793089E-1,4.850692749E-1,1.787781715E-1
3.697801724E0,-5.776315331E-1,6.524467468E-1,3.216409683E-1
3.716628078E0,-7.376835346E-1,9.396371841E-1,2.078890800E-2
3.735454484E0,-1.042172790E0,1.253180504E0,6.637716293E-2
3.754280839E0,-1.170654535E0,9.916973114E-1,6.304049492E-2
3.773107245E0,-1.163259506E0,2.264184952E-1,-1.609606743E-1
3.791933599E0,-1.132114649E0,-3.884124756E-2,-1.621987820E-1
3.810759953E0,-1.204313993E0,-3.675947189E-1,-1.681907177E-1
3.829586359E0,-1.359182358E0,-6.655025482E-1,5.097389221E-3
3.848412714E0,-1.135227561E0,-7.622814178E-1,2.918853760E-1
3.867239120E0,-1.154253483E0,-1.354351044E-1,8.373770714E-1
3.886065474E0,-1.697092533E0,6.116609573E-1,1.359346151E0
3.904891828E0,-2.083681107E0,8.322811127E-2,1.837025642E0
3.923718234E0,-2.251694202E0,-1.144856453E0,2.293495417E0
3.942544589E0,-2.193989992E0,-1.854291439E0,2.421795368E0
3.961370995E0,-1.901033044E0,-1.699999809E0,2.498222828E0
3.980197349E0,-1.497138858E0,-1.386338711E0,2.401968241E0
3.999023703E0,-1.290246129E0,-1.044163704E0,2.205215454E0
4.017850109E0,-1.224602818E0,-9.319143295E-1,1.713082790E0
4.036676464E0,-1.309012175E0,-6.597213745E-1,1.305481434E0
4.055502870E0,-1.091810703E0,-6.005067825E-1,9.444947243E-1
4.074329224E0,-6.383177042E-1,-5.019273758E-1,7.293241024E-1
4.093155630E0,-6.898463517E-2,-6.060142517E-1,6.687953472E-1
4.111981984E0,-4.046089202E-2,-1.772022247E-1,2.883963585E-1
4.130808391E0,-4.416136444E-1,2.929573059E-1,1.020407677E-1
4.149634745E0,-4.326623380E-1,3.934230804E-1,-4.800081253E-2
4.168461151E0,-2.056968510E-1,-8.634567261E-3,1.320977211E-1
4.187287505E0,1.244304478E-1,-8.680810928E-1,2.100098133E-1
4.206113912E0,3.302909434E-1,-1.384432316E0,4.244434834E-1
4.224940266E0,3.685767055E-1,-1.142355919E0,4.497473240E-1
4.243766620E0,2.585636377E-1,-4.488706589E-1,3.491594791E-1
4.262593026E0,1.886197925E-1,5.441341400E-1,2.392277718E-1
4.281419380E0,2.619102001E-1,1.275840759E0,6.358528137E-1
4.300245787E0,3.136816621E-1,1.373115540E0,1.098146200E0
4.319072141E0,7.923209667E-2,2.133325577E0,1.373776436E0
4.337898547E0,-2.005141973E-1,2.929376602E0,1.319706440E0
4.356724901E0,-3.395206332E-1,2.555572510E0,1.364356041E0
4.375551307E0,-2.056595087E-1,1.094392776E0,1.308869839E0
4.394377714E0,8.240300417E-2,-9.041166306E-1,1.257477283E0
4.413204068E0,4.207682610E-2,-2.057643414E0,9.959580898E-1
4.432030474E0,-1.439788938E-1,-2.637859821E0,5.673263073E-1
4.450856828E0,-1.322571039E-1,-2.968406200E0,1.757192612E-1
4.469683234E0,3.616833687E-2,-2.994509220E0,-3.620197773E-1
4.488509589E0,2.035262585E-1,-2.766302586E0,-1.031422615E0
4.507335995E0,1.512373686E-1,-2.328810215E0,-1.740291119E0
4.526162349E0,5.832779408E-2,-2.098553658E0,-2.656157255E0
4.544988755E0,3.887331486E-2,-2.073184490E0,-3.060600758E0
4.563815109E0,2.052706480E-1,-1.389144421E0,-3.145758867E0
4.582628391E0,5.507096052E-1,6.971645355E-2,-3.188936234E0
4.601467870E0,6.724503040E-1,1.437918663E0,-2.969615698E0
4.620294276E0,4.095761776E-1,2.131468773E0,-2.684976101E0
4.639120630E0,6.154725552E-1,2.861711502E0,-2.247368574E0
4.657947037E0,4.027328491E-1,4.493213654E0,-1.574024796E0
4.676773443E0,-7.714028358E-1,5.947687149E0,-1.265139818E0
4.695599797E0,-1.834251046E0,6.360730171E0,-3.935031891E-1
4.714426203E0,-1.732380986E0,5.017647743E0,1.002669096E0
4.733252557E0,-1.441103816E0,2.859250069E0,2.123604774E0
4.752065839E0,-1.750671387E0,3.214817047E-1,2.535563707E0
4.770905370E0,-2.293612480E0,-2.540006638E0,2.473395824E0
4.789731724E0,-2.724100113E0,-4.611494064E0,2.368525505E0
4.808558130E0,-2.791216135E0,-5.336971760E0,2.414443016E0
4.827384484E0,-2.462635040E0,-4.755800724E0,2.626407862E0
4.846210891E0,-1.937957883E0,-3.456932068E0,2.988342285E0
4.865037297E0,-1.885887384E0,-2.305451393E0,3.087326765E0
4.883863651E0,-1.952633619E0,-6.363468170E-1,2.782840729E0
4.902690057E0,-1.816681504E0,1.259189606E0,2.343168020E0
4.921516464E0,-1.453994513E0,2.562966347E0,2.288533211E0
4.940342818E0,-7.947594523E-1,3.121869087E0,1.748537540E0
4.959169224E0,-7.303434610E-1,3.400260925E0,6.701456308E-1
4.977995578E0,-6.944769025E-1,3.137280464E0,-3.392016292E-1
4.996821984E0,-5.363175869E-1,2.587903023E0,-7.842816114E-1
5.015648391E0,-1.714586318E-1,8.955698013E-1,-5.040329695E-1
5.034461672E0,4.946134686E-1,-1.174931526E0,-4.932770133E-1
5.053301151E0,1.121773601E0,-3.384866714E0,-7.217916250E-1
5.072127557E0,1.484662533E0,-4.506795883E0,-9.551759958E-1
5.090953912E0,1.633713484E0,-5.132875919E0,-1.651042819E0
5.109780318E0,1.737097979E0,-5.462507725E0,-2.240961552E0
5.128606724E0,1.890706301E0,-5.846683502E0,-2.283708096E0
5.147433078E0,1.994585037E0,-6.426416397E0,-2.093599558E0
5.166259484E0,1.631178260E0,-6.475649834E0,-1.790437937E0
5.185085891E0,1.087232590E0,-5.548338890E0,-1.301355124E0
5.203899120E0,5.820931792E-1,-3.077315331E0,-9.702150226E-1
5.222738651E0,-9.335665405E-2,1.362908363E0,-5.223935246E-1
5.241565057E0,-6.388941407E-1,5.389633179E0,-4.982450604E-2
5.260378339E0,-7.192913294E-1,8.219874382E0,7.899870276E-1
5.279217818E0,-3.507743776E-1,1.044733143E1,2.654717684E0
5.298044224E0,-1.197396293E-1,1.170461655E1,4.510797501E0
5.316870578E0,-2.993132174E-1,1.050360012E1,5.642766476E0
5.335696984E0,-5.677020550E-1,9.734704018E0,6.192643166E0
5.354523391E0,-2.937769890E-1,9.404708862E0,5.734784126E0
5.373349797E0,-1.998594701E-1,8.822238922E0,4.675426006E0
5.392176151E0,-4.794996083E-1,7.717047691E0,3.278783321E0
5.411002557E0,-8.437883854E-1,6.377803802E0,1.707860827E0
5.429815839E0,-1.572590828E0,4.528916359E0,3.373821974E-1
5.448655318E0,-2.318133116E0,1.777601242E0,-4.698396921E-1
5.467481724E0,-2.604940891E0,-1.200076103E0,-8.885046244E-1
5.486295005E0,-2.507149458E0,-3.429111958E0,-1.095936298E0
5.505134537E0,-2.721335888E0,-4.672636032E0,-1.644693613E0
5.523960891E0,-3.028907299E0,-5.281875134E0,-2.157064915E0
5.542787297E0,-2.863610506E0,-5.298222542E0,-2.734885216E0
5.561613703E0,-2.372985363E0,-4.781642437E0,-3.315373182E0
5.580440109E0,-2.159066200E0,-4.275407314E0,-4.029179573E0
5.599266464E0,-2.161017656E0,-3.675279617E0,-5.077410698E0
5.618092870E0,-1.716648817E0,-2.889559746E0,-6.078131676E0
5.636919276E0,-9.422000051E-1,-2.018714428E0,-6.465759277E0
5.655745630E0,-1.412609816E-1,-7.142400742E-1,-6.340436935E0
5.674572037E0,6.270731688E-1,7.601757050E-1,-5.496625423E0
5.693398443E0,1.525009751E0,2.175199509E0,-4.684920788E0
5.712224849E0,2.898794174E0,1.876749039E0,-3.832798958E0
5.731051255E0,3.562144756E0,9.877567291E-1,-2.936207056E0
5.749877609E0,3.130683422E0,1.087508202E0,-2.423085213E0
5.768704016E0,2.407065392E0,2.114264488E0,-1.904686451E0
5.787530422E0,2.281380177E0,2.842042923E0,-4.813506603E-1
5.806356828E0,2.265724659E0,2.261476517E0,9.149560928E-1
5.825170109E0,1.040187120E0,6.881113052E-1,1.756109238E0
5.844009589E0,-1.175392032E0,-1.486871243E0,1.950691938E0
5.862835995E0,-3.089316607E0,-3.660743713E0,2.207625389E0
5.881649276E0,-3.398633480E0,-5.944430351E0,2.579599857E0
5.900488807E0,-2.008052588E0,-7.727778435E0,2.625389576E0
5.919315214E0,2.249315381E-2,-8.735120773E0,2.270150185E0
5.938128495E0,1.851432920E0,-9.879663467E0,1.833731174E0
5.956967974E0,2.596407413E0,-9.255733490E0,4.607329369E-1
5.975794380E0,3.328960896E0,-5.183080673E0,-1.589410663E0
5.994607662E0,4.745812416E0,2.083766937E0,-2.967116833E0
6.013447193E0,7.329158783E0,9.970854759E0,-2.570729017E0
6.032273599E0,9.951416016E0,1.367562199E1,-5.385487556E0
6.051086880E0,9.241202354E0,1.314020252E1,-6.009666443E0
6.069926359E0,8.737021446E0,1.554265499E1,-7.192276001E0
6.088752766E0,8.029335022E0,1.239124584E1,-6.405972481E0
6.107566047E0,7.371362209E0,8.567845345E0,-3.864925385E0
6.126405578E0,5.012352943E0,6.829635620E0,-2.138446808E0
6.145231984E0,1.432616711E0,4.558668137E0,-9.108096957E-1
6.164045266E0,-2.278821468E0,1.260974884E0,4.590172768E-1
6.182884797E0,-5.948616028E0,-1.575922966E0,1.859062552E0
6.201711203E0,-1.026982880E1,-3.634471893E0,2.891896725E0
6.220524484E0,-1.468058777E1,-6.348359108E0,2.757707596E0
6.239363964E0,-1.715063095E1,-8.202650070E0,2.938006878E0
6.258190370E0,-1.662896156E1,-7.942198753E0,2.927373409E0
6.277003703E0,-1.506055355E1,-4.931389809E0,2.239643574E0
6.295843182E0,-1.318389416E1,-1.028176785E0,1.455109715E0
6.314669589E0,-1.065535545E1,2.788052559E0,5.207928419E-1
6.333482870E0,-8.557044983E0,5.603939056E0,6.017992496E-1
6.352322401E0,-8.098115921E0,7.178316116E0,1.152197719E0
6.371148807E0,-5.970433235E0,6.421940804E0,7.834960222E-1
6.389962089E0,1.686834812E0,6.961710930E0,2.582459927E0
6.408801568E0,1.184750557E1,8.325563431E0,1.934641361E0
6.427627974E0,1.245111370E1,7.685470581E0,5.516064167E-2
6.446441307E0,7.949922562E0,7.454598427E0,-2.285138130E0
6.465280787E0,4.437371731E0,6.112124443E0,-2.915896893E0
6.484107193E0,1.882127285E0,2.630096436E0,-2.438491344E0
6.502920474E0,7.746961117E-1,-3.707437515E-1,-1.797967434E0
6.521760005E0,-3.064340353E-1,-3.715683937E0,-1.761941195E0
6.540586412E0,-1.355175972E0,-6.986474037E0,-1.567174196E0
6.559399693E0,-2.968129396E0,-9.075298309E0,-1.981088042E0
6.578239224E0,-4.844378471E0,-9.597183228E0,-1.601846814E0
6.597065630E0,-2.751821041E0,-9.496045113E0,-1.864315510E0
6.615878912E0,1.423117161E0,-7.876970291E0,-3.175506830E0
6.634718443E0,4.973665714E0,-6.925165653E0,-4.720448494E0
6.653544849E0,6.919954300E0,-5.017865181E0,-5.375674248E0
6.672358130E0,6.393636227E0,3.067111969E-1,-1.847666860E0
6.691197662E0,5.799949646E0,5.758696556E0,9.224561453E-1
6.710024068E0,6.475062847E0,6.187233925E0,2.817813873E0
6.728837349E0,5.508782864E0,9.844938278E0,5.956720352E0
6.747676880E0,5.396763325E0,1.627157784E1,5.935686588E0
6.766503287E0,3.848694324E0,1.969775391E1,2.311312675E0
6.785316568E0,3.192307949E-1,1.652976036E1,-1.082714677E0
6.804156099E0,-2.179311037E0,8.727897644E0,-2.136590242E0
6.822982505E0,-4.212567806E0,2.325162888E0,-1.669080496E0
6.841795787E0,-4.957582951E0,-4.670809746E0,2.466654480E-1
6.860635318E0,-3.628801823E0,-1.144757271E1,2.680625916E0
6.879461724E0,-1.665605068E0,-1.303400040E1,3.547983170E0
6.898275005E0,-7.788267732E-1,-9.705033302E0,2.655007839E0
6.917114537E0,-1.068617344E0,-7.154427528E0,4.978903532E-1
6.935940943E0,-2.425202608E0,-5.966011047E0,-1.114392757E0
6.954767349E0,-4.454370022E0,-5.320580482E0,-1.331021428E0
6.973593755E0,-4.235678673E0,-3.611342430E0,-9.780744314E-1
6.992420162E0,-2.422580242E0,1.583847046E0,-7.475268841E-2
7.011233443E0,-2.900345325E-1,5.259480476E0,1.125037193E0
7.030072974E0,1.535287738E0,6.676086426E0,1.819818377E0
7.048899380E0,2.180863857E0,6.944537163E0,1.990401149E0
7.067725787E0,2.096232176E0,5.390366554E0,2.418321609E0
7.086552193E0,1.516173601E0,3.409758568E0,1.299406171E0
7.105378599E0,7.577360868E-1,3.075828552E-1,-8.262515068E-2
7.124191932E0,1.747854948E-1,-3.290379047E0,-1.533600688E0
7.143031412E0,-5.810177326E-2,-5.192880630E0,-3.425972223E0
7.161857870E0,-3.269450665E-1,-6.290315628E0,-4.575704575E0
7.180671151E0,-9.663385749E-1,-8.477467537E0,-4.413733482E0
7.199510682E0,-1.260583282E0,-1.073108864E1,-3.841003418E0
7.218337089E0,-1.242279768E0,-1.085488224E1,-2.611168861E0
7.237150370E0,-2.099521637E0,-9.345101357E0,-8.540035486E-1
7.255989901E0,-4.561206341E0,-3.965966225E0,1.359331369E0
7.274816359E0,-7.723402023E0,3.137139320E0,7.311826229E0
7.293629641E0,-1.076384544E1,1.014587212E1,1.163023663E1
7.312469172E0,-1.321413517E1,1.539419651E1,1.220203400E1
7.331295578E0,-1.072037315E1,1.681711197E1,1.296415138E1
7.350108912E0,-8.350757599E0,1.738235474E1,1.160433769E1
7.368948443E0,-6.899032116E0,1.547777843E1,8.498495102E0
7.387774849E0,-6.264132977E0,1.227934647E1,4.881143093E0
7.406588130E0,-5.029813766E0,6.997353554E0,3.909409046E-1
7.425427662E0,-3.566196442E0,1.233925819E0,-4.967715263E0
7.444254068E0,-9.670506477E0,4.202604294E0,-8.165837288E0
7.463067349E0,-2.424343872E1,7.729935646E0,-1.091189766E1
7.481906880E0,-2.097994995E1,7.926532269E0,-1.241919994E1
7.500733287E0,-1.198397160E1,1.066102886E1,-1.718966293E1
7.519546620E0,-1.075078011E0,1.051035976E1,-1.187894440E1
7.538386151E0,3.994085789E0,1.513331604E1,-5.885134697E0
7.557212557E0,6.354487419E0,1.994145012E1,-5.589783669E0
7.576025839E0,9.879927635E0,1.985733223E1,-7.408672333E0
7.594865370E0,7.654891491E0,1.740740967E1,-6.424789429E0
7.613691776E0,3.243452549E0,1.545405960E1,-4.112527847E0
7.632505057E0,1.375092030E0,1.440725517E1,-3.430507183E0
7.651344589E0,1.641602039E0,1.455548096E1,-7.402486801E0
7.670170995E0,1.288469791E0,1.765559959E1,3.335791826E0
7.688984328E0,1.261945248E0,1.738343811E1,7.424259186E0
7.707823859E0,3.520299673E0,1.610791016E1,5.528014183E0
7.726650266E0,3.727691412E0,1.282762337E1,9.277409554E0
7.745463547E0,2.619095325E0,7.096181393E0,7.484014034E0
7.764303078E0,4.108948708E0,2.599536896E0,3.964454651E0
7.783129484E0,6.032263279E0,1.773715973E0,6.388831139E-1
7.801955891E0,6.867632866E0,1.119102001E0,4.316983223E-1
7.820782349E0,7.658681870E0,2.590348959E0,4.372305870E-1
7.839608755E0,8.882298470E0,6.478832245E0,-4.957256317E-1
7.858422037E0,8.168918610E0,8.142225266E0,1.324632168E0
7.877261568E0,4.156406403E0,7.485085487E0,-1.532140255E0
7.896087974E0,-8.127398491E-1,6.913429260E0,-6.062444687E0
7.914914380E0,-3.553939819E0,5.960939407E0,-6.309937954E0
7.933740839E0,1.277599335E-1,4.575069904E0,-6.643882751E0
7.952567245E0,5.318319798E0,3.597505808E0,-5.694084644E0
7.971393651E0,5.511438847E0,2.979187489E0,-3.208025455E0
7.990220057E0,2.125568867E0,2.773380041E0,-4.205998421E0
8.009046516E0,-1.128673553E-2,2.976180553E0,-3.772626638E0
8.027859797E0,5.392990112E-1,2.514117241E0,-1.663414001E0
8.046699328E0,-1.347596645E0,1.747274399E0,3.662281036E-1
8.065525734E0,-4.043708324E0,8.728312850E-1,2.063470364E0
8.084352193E0,-3.611046791E0,4.776270986E-1,6.804752350E-1
8.103178599E0,-1.640503883E0,2.023764610E0,-1.428373814E0
8.122005005E0,-2.673333645E0,4.590228558E0,-2.182064533E0
8.140818287E0,-4.577750683E0,5.620172501E0,-5.290412903E-1
8.159657818E0,-5.236611843E0,6.467896461E0,2.152480602E0
8.178484276E0,-5.124532223E0,6.546195984E0,4.896791458E0
8.197310682E0,-5.628155708E0,5.227513313E0,6.201758385E0
8.216137089E0,-7.053953648E0,3.932648659E0,8.568637848E0
8.234963495E0,-1.037339306E1,2.035050869E0,9.160240173E0
8.253776828E0,-1.120253944E1,-1.348857880E-1,7.475158691E0
8.272616359E0,-6.560057163E0,-1.803439617E0,4.701713085E0
8.291442766E0,1.029930115E0,-1.599879742E0,3.502615929E0
8.310256047E0,5.448831081E0,-7.793760300E-2,3.278799057E0
8.329095630E0,7.367801189E0,1.562749863E0,2.370384693E0
8.347922037E0,7.922504425E0,2.103304386E0,3.196320534E-1
8.366735318E0,7.456751823E0,2.960874557E0,-4.609751701E-1
8.385574849E0,4.386449814E0,4.598138809E0,-2.284566164E0
8.404401255E0,-2.505686283E-1,4.756839752E0,-3.997926950E0
8.423214589E0,-2.747394562E0,3.032467842E0,-3.695429325E0
8.442054120E0,-2.259309530E0,1.369677544E0,-7.188169956E-1
8.460880526E0,-2.231717348E0,9.449157715E-1,-1.482415199E-1
8.479693859E0,-4.275702477E0,1.190114975E0,-3.396751881E-1
8.498533391E0,-5.865794659E0,9.693517685E-1,1.868160725E0
8.517359797E0,-4.296833038E0,1.000761032E0,5.305873871E0
8.536173130E0,-9.956431985E-1,1.120512009E0,5.703967094E0
8.555012662E0,-3.226356208E-1,1.714289665E0,6.728724003E0
8.573839068E0,-1.428387403E0,1.282619476E0,5.131720543E0
8.592652349E0,-2.415742874E0,-3.270511627E-1,2.040796757E0
8.611491880E0,-2.649779558E0,-1.265607834E0,-3.050565720E-1
8.630318339E0,-3.316628456E0,-1.143615246E0,-1.682734013E0
8.649131620E0,-4.483054638E0,-1.925816059E0,-3.540960550E0
8.667971151E0,-4.569225311E0,-3.291597843E0,-5.458788872E0
8.686797609E0,-2.863358736E0,-3.684674025E0,-5.648189545E0
8.705624016E0,-1.174937367E0,-3.632977962E0,-6.281523705E0
8.724450422E0,-9.979069233E-1,-3.376389503E0,-5.721096039E0
8.743276828E0,-1.952529788E0,-3.520538807E0,-4.926889420E0
8.762090162E0,-2.484646320E0,-2.418261051E0,-3.212316990E0
8.780929693E0,-4.629549026E0,-4.530348778E-1,-2.875772476E0
8.799756099E0,-6.471584320E0,4.835610390E-1,-2.615265846E0
8.818569432E0,-4.705924988E0,8.816819191E-1,-1.337368965E0
8.837408964E0,-2.824772835E0,1.501108646E0,1.976164341E0
8.856235370E0,-9.383529663E0,8.858537674E-1,4.152086735E0
8.875048703E0,-1.293018913E1,1.981200218E0,4.447233200E0
8.893888234E0,-6.234242439E0,3.200905323E0,8.214039803E0
8.912714641E0,2.007710695E0,1.173024178E-1,1.184737587E1
8.931527974E0,5.754234791E0,-2.876936436E0,1.109411621E1
8.950367505E0,3.990766287E0,-3.773111582E0,7.303789616E0
8.969193964E0,-2.825686455E0,-3.884096146E0,-5.496263504E-1
8.988007245E0,-4.602038383E0,-9.901139736E-1,-3.404263258E0
9.006846776E0,2.594256878E0,1.136560440E-1,-2.836853981E0
9.025673234E0,9.172186852E0,-8.869545460E-1,-1.127308130E0
9.044486516E0,1.332954979E1,-1.607973099E0,2.296570301E0
9.063326047E0,1.491221428E1,-3.325524330E-1,2.913985729E0
9.082152453E0,1.105744076E1,1.977490425E0,9.628214836E-1
9.100965787E0,6.136324883E0,1.367079496E0,9.479987621E-1
9.119805318E0,3.636110306E0,-7.699713707E-1,3.564018011E-2
9.138631776E0,6.619396210E-1,-1.768502235E0,-1.690690517E0
9.157445057E0,-3.111119270E0,-4.710576534E-1,-1.954212189E0
9.176284589E0,-5.057316780E0,9.673438072E-1,-1.712691784E0
9.195111047E0,-4.806385994E0,8.692495823E-1,-2.088620901E0
9.213937453E0,-5.303913116E0,-1.868889332E-1,-2.451247215E0
9.232763859E0,-5.443441391E0,-1.947045326E-1,-1.862043500E0
9.251590318E0,-2.849249840E0,-5.915086269E-1,-7.107325792E-1
9.270403651E0,9.641237259E-1,-6.659288406E-1,6.498968601E-2
9.289243182E0,3.358782768E0,-8.824276924E-2,8.094209433E-1
9.308069589E0,4.180297852E0,3.893451691E-1,2.035193682E0
9.326896047E0,4.826073647E0,5.654051304E-1,2.606189966E0
9.345722453E0,5.703553200E0,1.615190506E-1,2.365370274E0
9.364548859E0,5.998706341E0,-9.129440784E-1,2.061857224E0
9.383375318E0,5.829589367E0,-1.879119754E0,1.772863865E0
9.402201724E0,5.761207104E0,-2.303254128E0,7.956826687E-1
9.421028182E0,5.818511009E0,-1.932475567E0,-6.537665129E-1
9.439841464E0,4.826159477E0,-7.288520336E-1,-7.318191528E-1
9.458680995E0,1.063447952E0,1.566905737E0,6.304802895E-1
9.477507453E0,-5.050046921E0,4.057737350E0,1.787228823E0
9.496320734E0,-1.023004055E1,5.219697952E0,1.661519051E0
9.515160318E0,-1.215714931E1,6.160216331E0,7.146565318E-1
9.533986724E0,-1.460170174E1,4.229598045E0,9.761914015E-1
9.552800057E0,-1.835232925E1,3.509179115E0,2.354519606E0
9.571639589E0,-1.697764206E1,1.924573421E0,1.957663059E0
9.590466047E0,-1.338098717E1,1.972663403E0,1.273571014E0
9.609279328E0,-1.068672752E1,4.068676472E0,2.031645298E0
9.628118912E0,-8.232866287E0,6.103581429E0,3.408317089E0
9.646945318E0,-5.896490097E0,4.499704838E0,3.137916088E0
9.665758651E0,-4.815496445E0,-6.257233620E-1,2.153652668E0
9.684598182E0,-4.059639454E0,-4.361473083E0,5.742275715E-1
9.703424589E0,-3.058996677E0,-6.996281147E0,-1.056850433E0
9.722237922E0,-1.702593803E0,-8.335560799E0,-2.837705135E0
9.741077453E0,-6.208329201E-1,-8.630640030E0,-4.596540928E0
9.759903912E0,1.861543655E-1,-8.372407913E0,-6.032642365E0
9.778730318E0,4.664919376E-1,-7.563324928E0,-6.499178886E0
9.797556776E0,1.556558609E-1,-6.391018867E0,-6.284664154E0
9.816383182E0,9.460520744E-2,-4.899075508E0,-6.528418064E0
9.835196516E0,6.187510490E-1,-3.665624142E0,-6.557106018E0
9.854036047E0,2.632950783E0,-2.419068813E0,-6.010471821E0
9.872862505E0,4.874158859E0,-7.483386993E-1,-5.204517365E0
9.891675787E0,5.538805485E0,1.330608368E0,-4.671605110E0
9.910515370E0,4.391594887E0,2.957878113E0,-4.418088913E0
9.929341776E0,2.800764561E0,4.182772636E0,-3.730202913E0
9.948155109E0,1.298875213E0,5.209307671E0,-3.237506866E0
9.966994641E0,6.836236715E-1,4.505826950E0,-4.410561085E0
9.985821099E0,1.509082437E0,2.351842880E0,-4.987917423E0
1.000463438E1,2.311905622E0,-1.445951462E-1,-4.605046749E0
1.002347396E1,2.896976233E0,-2.909660816E0,-3.711770296E0
1.004230037E1,2.982993603E0,-5.647278786E0,-2.824402809E0
1.006111370E1,2.187870264E0,-7.958368301E0,-2.457280636E0
1.007995323E1,7.845182419E-1,-9.835214615E0,-2.735848665E0
1.009877969E1,-4.628217220E-1,-1.108511353E1,-3.719334602E0
1.011760610E1,-8.435902596E-1,-1.180820847E1,-4.277026653E0
1.013643256E1,-1.160269022E0,-1.132975578E1,-3.837954998E0
1.015525896E1,-2.772474766E0,-8.803607941E0,-4.138701916E0
1.017407230E1,-6.063200474E0,-4.730191231E0,-4.187257767E0
1.019291183E1,-8.916726112E0,5.159273148E-1,-3.658284903E0
1.021173829E1,-8.419967651E0,5.673189163E0,-1.317005157E0
1.023055162E1,-4.630587101E0,9.546876907E0,8.103976250E-1
1.024939115E1,-2.246447563E0,1.234008789E1,-7.592451572E-2
1.026821761E1,-3.442173004E0,1.878072739E1,-5.559355021E-2
1.028704402E1,-4.555099010E0,2.139497566E1,-1.048300862E0
1.030587047E1,-5.612300873E0,1.542019653E1,-1.015871167E0
1.032469688E1,-6.618259907E0,7.509349823E0,1.883174539E0
1.034351021E1,-5.522038937E0,1.098561764E0,4.188447952E0
1.036234975E1,-4.765548229E0,-3.841611862E0,4.259737968E0
1.038117620E1,-5.611547947E0,-6.313007832E0,7.412294149E-1
1.039998954E1,-4.481066227E0,-5.986414909E0,-1.410167217E0
1.041882907E1,-3.162384033E-3,-3.530224085E0,-9.198373556E-1
1.043765553E1,4.897889614E0,-8.988623619E-1,-3.119994998E-1
1.045646881E1,7.546472073E0,1.277934551E0,4.675869346E-1
1.047530839E1,7.068324566E0,2.102638721E0,2.490908146E0
1.049413480E1,4.093397141E0,5.670762062E-1,3.467166901E0
1.051294813E1,9.454860687E-1,-1.039415359E0,2.136684895E0
1.053178766E1,-2.610843658E0,-6.506156921E-2,1.753074050E0
1.055061412E1,-3.350179672E0,2.519659519E0,-1.111375928E0
1.056942745E1,-3.077235222E0,3.598197460E0,8.512597084E0
1.058826698E1,3.232439041E0,3.998198509E-1,6.511708736E0
1.060709344E1,1.630590439E0,-1.674986839E0,4.018762589E0
1.062590678E1,-3.114817619E0,-2.256008148E0,2.470471144E0
1.064474631E1,-2.908265591E0,-9.823899269E-1,6.222074032E-1
1.066357271E1,1.000801563E0,1.842406750E0,-3.863016963E-1
1.068239917E1,4.254150391E-1,2.920031071E0,-3.294031024E-1
1.070122563E1,-1.187366962E0,-1.534355164E0,-1.447310686E0
1.072005204E1,4.319295883E-1,-4.346491814E0,2.513360977E-2
1.073886537E1,4.832214832E0,-3.962575436E0,9.554048777E-1
1.075770495E1,5.266794205E0,-3.096338511E0,-7.742156982E-1
1.077653136E1,1.561694622E0,-1.052955627E0,9.786319733E-2
1.079534469E1,-2.733268738E-1,1.333920002E0,2.622551918E-1
1.081418428E1,1.786251068E-1,1.777586937E0,2.641929150E0
1.083301068E1,2.557366848E0,1.658578396E0,1.113087416E0
1.085182402E1,3.069381952E0,4.741132736E0,-1.076872587E0
1.087066360E1,5.397831440E0,4.356021404E0,-4.197988033E0
1.088949000E1,3.131476879E0,-2.390191317E0,1.284303665E-1
1.090830334E1,-4.517895222E0,-1.305333424E1,1.375379801E0
1.092714292E1,-1.067462921E1,-2.162817001E0,9.625658989E-1
1.094596933E1,-3.209696770E0,7.307011127E0,-3.436279297E-2
1.096478266E1,2.175123692E0,5.947432518E0,1.342971325E-1
1.098362225E1,-1.242264271E0,1.040310860E0,1.531935692E0
1.100244865E1,-6.993523598E0,5.983386040E-1,3.182766914E0
1.102126198E1,-8.101435661E0,3.466949940E0,3.647052526E0
1.104010157E1,-3.402756214E0,1.287588120E0,5.417461395E0
1.105892803E1,2.835497856E-1,-1.343560696E0,3.202957392E0
1.107774136E1,9.404745102E-1,-5.325914383E0,-7.179872990E-1
1.109658089E1,-1.441206932E-1,-8.093872070E0,-3.646786451E0
1.111540735E1,1.170698643E0,-4.497080326E0,-2.826802015E0
1.113422068E1,2.328866482E0,-9.311487675E-1,-2.231189728E0
1.115306027E1,2.943523407E0,-2.146957874E0,-3.626108170E-1
1.117188667E1,4.743446350E0,-4.097406864E0,-9.841599464E-1
1.119070000E1,5.389466286E0,-5.955578804E0,-1.315393209E0
1.120953959E1,4.857913017E0,-5.668512821E0,-2.658667564E0
1.122836605E1,3.174750328E0,-1.793323517E0,-7.001379967E0
1.124717938E1,-6.982831955E0,4.104679108E0,-8.617650986E0
1.126601891E1,-1.043775749E1,5.820550919E-1,-7.425913811E0
1.128484537E1,-5.907528877E0,-3.157827139E0,-2.526645660E0
1.130365870E1,-2.039698124E0,1.415941715E-1,-3.513310194E0
1.132249823E1,7.983512878E-1,-3.506083488E-1,-9.135847092E-1
1.134132469E1,-4.983854294E-1,-6.367092133E-1,-1.964511871E-1
1.136013803E1,1.391219425E1,1.090566826E1,9.604785919E0
1.137897761E1,-2.863300323E0,-2.620460272E0,-1.917328119E0
1.139780402E1,-3.866152763E0,6.086883545E-1,7.231349468E0
1.141661735E1,3.582406998E0,1.392927170E0,-6.178255081E-1
1.143545693E1,1.020629406E1,3.471784592E-1,-3.488506794E0
1.145428339E1,7.290615082E0,-7.736730576E-2,-5.828658581E0
1.147309672E1,1.061085701E0,2.589664459E0,-4.935020924E0
1.149193626E1,7.318782806E-1,-1.267791271E0,-3.052761793E0
1.151076271E1,4.389560699E0,-4.970388412E0,-3.044969320E0
1.152957605E1,5.673659325E0,-4.267373085E0,-1.432804585E0
1.154841563E1,1.498197079E0,-2.718686104E0,2.114518166E0
1.156724204E1,-2.256714344E0,-2.345186949E0,4.426059723E0
1.158605537E1,-3.874344349E0,-1.454045773E0,5.517234802E0
1.160489495E1,-3.834382057E0,-3.635754585E-1,6.799385071E0
1.162372141E1,-4.112777233E0,2.081688881E0,4.978000641E0
1.164253474E1,-7.332204819E0,3.436411381E0,3.389670372E0
1.166137433E1,-4.768820763E0,4.708213329E0,2.179699421E0
1.168020079E1,-2.767522335E0,2.767182827E0,4.563904762E0
1.169901412E1,-3.646283627E0,9.625825882E-1,5.910962105E0
1.171785365E1,-2.204545498E0,2.670148849E0,2.422678947E0
1.173668011E1,-2.924309731E0,2.490297794E0,8.938117027E-1
1.175549344E1,-3.318289280E0,-1.069937706E0,1.151284218E0
1.177433303E1,-2.988332748E0,-2.034605503E0,2.298005581E0
1.179315948E1,-2.854143620E0,-1.071022034E0,1.772617340E0
1.181197282E1,-4.733031273E0,-8.978261948E-1,9.386582375E-1
1.183081240E1,-1.012163162E0,1.716751099E0,-5.665158272E0
1.184963886E1,4.859810829E0,-1.517933846E0,-6.371697426E0
1.186845219E1,4.201900482E0,1.870203018E0,-6.871936321E0
1.188729178E1,4.056673527E0,2.084771633E0,-5.720155716E0
1.190611818E1,2.554897547E0,1.145653725E0,-4.421254158E0
1.192493157E1,1.825281382E0,1.634866714E0,-4.808757305E0
1.194377115E1,-8.503627777E-2,1.452032566E0,-3.010596037E0
1.196259761E1,-4.503717422E-1,8.091616631E-1,-1.815170288E0
1.198141094E1,1.729748726E0,1.644594669E0,-1.140746117E0
1.200025047E1,-2.353959084E-1,2.372288704E0,-8.182516098E-1
1.201907693E1,-2.607941628E-1,2.524303436E0,-1.085892677E0
1.203790339E1,4.297456741E-1,1.498817444E0,-1.272622108E0
1.205672985E1,-5.017590523E-1,1.389166832E0,-4.612431526E-1
1.207555631E1,-1.755550385E0,1.360289097E0,8.464126587E-1
1.209438277E1,-3.378734589E-1,8.113951683E-1,-6.055450439E-2
1.211320922E1,-1.071448326E-1,-1.641035080E-1,2.524647713E-1
1.213203568E1,1.545519829E0,5.254783630E-1,-3.003501892E-2
1.215086214E1,1.157578468E0,-8.607721329E-2,1.113848686E-1
1.216968860E1,2.374892235E0,-2.871394157E-1,-7.264924049E-1
1.218851511E1,6.259133339E0,-4.542695999E0,-1.238124371E0
1.220732844E1,4.352758408E0,-3.196438313E0,-3.167943001E0
1.222616803E1,3.364875793E0,-1.867851734E0,-3.682141304E0
1.224499448E1,4.545466900E0,-1.670077562E0,-3.949366331E0
1.226380787E1,5.704245090E0,-1.640262842E0,-2.789129496E0
1.228264745E1,4.102561951E0,-1.493935347E0,-4.386015892E0
1.230147396E1,1.293204784E0,8.890883923E-1,-3.344750881E0
1.232028730E1,1.917876720E0,3.483526945E0,-1.992707253E0
1.233912688E1,8.089265823E-1,5.253189087E0,-8.362073898E-1
1.235795334E1,-2.989818573E0,5.785900116E0,6.545183659E-1
1.237676672E1,-5.433105469E0,4.579768181E0,8.779671192E-1
1.239560626E1,-9.447790146E0,2.530065775E0,1.971218824E0
1.241443271E1,-8.947678566E0,8.011054993E-2,9.822304249E-1
1.243325917E1,-7.261204720E0,-4.741456509E-1,2.719268799E-1
1.245208563E1,-5.653584480E0,-8.727240562E-1,-9.603953362E-2
1.247091209E1,-4.328578949E0,-1.079162598E0,1.138401270E0
1.248972547E1,1.231855392E0,-4.261245728E-1,1.155150652E0
1.250856501E1,5.283825397E0,1.989874840E-1,1.373841047E0
1.252739146E1,5.401993752E0,2.596941948E0,2.345435143E0
1.254620485E1,2.222470284E0,1.441131115E0,7.855346203E-1
1.256504438E1,-1.349874496E0,-9.016304016E-1,-2.690372705E0
1.258387084E1,-1.217018127E0,-4.828653336E-1,-3.138516426E0
1.260268417E1,-2.324636459E0,3.287754059E-1,-1.607249737E0
1.262152376E1,-1.967413902E0,1.535525322E-1,1.267890930E0
1.264035021E1,2.261346817E0,-1.178168774E0,6.903851032E-1
1.265917667E1,2.644600868E0,-1.812215328E0,4.815814495E-1
1.267800313E1,1.208125591E0,-1.623697519E0,1.381305218E0
1.269682959E1,3.672904968E-1,-1.946521997E0,2.002911329E0
1.271565605E1,-3.016066551E-1,-1.692875624E0,1.775424957E0
1.273448250E1,-1.896683693E0,-6.223309040E-1,7.299473286E-1
1.275330896E1,-3.634779930E0,7.098307610E-1,6.964218616E-1
1.277213542E1,-3.096394539E0,-2.826905251E-1,1.786079407E-1
1.279096188E1,-9.094095230E-1,-1.079421759E0,1.116674662E0
1.280978834E1,7.298054695E-1,-6.567134857E-1,-3.638379574E-1
1.282860167E1,-2.330012321E-1,-2.704739571E-1,-2.800905704E-1
1.284744126E1,-2.016069412E0,-1.280511141E0,-2.632081270E0
1.286626771E1,5.984273911E0,-1.027137518E0,4.086149216E0
1.288508105E1,1.038949203E1,-5.568404198E-1,4.522395134E-2
1.290392063E1,3.887063980E0,8.840517998E-1,2.167641163E0
1.292274709E1,3.213765621E0,1.908717155E0,-2.657162428E0
1.294156042E1,2.479320049E0,1.831584930E0,-2.458544970E-1
1.296040000E1,4.344603062E0,-1.936886072E0,-1.250621796E0
1.297922646E1,4.889102936E0,-2.363832951E0,2.907873392E-1
1.299803980E1,2.338766575E0,-2.820518494E0,4.679934382E-1
1.301687938E1,-1.304380417E0,-1.468364716E0,1.813249230E0
1.303570584E1,-2.464049339E0,-1.662687540E0,3.181520224E0
1.305453230E1,-1.471840858E0,-2.602708101E0,4.883852959E0
1.307335876E1,-1.408284187E0,-3.142614603E0,4.569163799E0
1.309218521E1,-2.237739563E0,-5.741825104E-1,2.236984015E0
1.311099855E1,-3.437172890E0,2.168261528E0,7.561790943E-1
1.312983813E1,-2.633445740E0,2.373170853E0,5.976808667E-1
1.314866459E1,-4.753065109E0,6.696205139E-1,-1.665712118E0
1.316747792E1,-3.887654305E0,2.788727760E0,6.443076611E0
1.318631751E1,5.541226387E0,3.639364719E0,1.141148949E1
1.320514396E1,4.154826164E0,1.817574501E-1,5.782918453E0
1.322395730E1,1.179859161E0,2.451858521E-1,3.327744484E0
1.324279688E1,5.688729286E-1,1.308052540E0,1.933834195E0
1.326162334E1,3.136501312E-1,2.358588696E0,6.140086651E-1
1.328043667E1,-5.112533569E-1,1.565207481E0,-9.823103547E-1
1.329927626E1,-1.540396690E0,9.461832047E-1,-3.173622608E0
1.331810271E1,-2.136106491E0,2.432864666E0,-3.972992182E0
1.333692917E1,-1.273310661E0,4.035809040E0,-3.869584084E0
1.335575563E1,2.633647919E-1,3.839025974E0,-3.496197701E0
1.337458209E1,8.241429329E-1,2.705061913E0,-2.925355434E0
1.339340860E1,8.530335426E-1,1.358530045E0,-2.789984465E0
1.341223506E1,9.603409767E-1,3.351063728E-1,-2.989829779E0
1.343106152E1,1.416775703E0,-4.341125488E-2,-3.269925833E0
1.344988797E1,1.992661953E0,-5.810606480E-1,-2.947812080E0
1.346871443E1,2.530835629E0,-1.779289007E0,-2.461044073E0
1.348754089E1,3.278304100E0,-2.770311356E0,-2.093295097E0
1.350636735E1,3.949076653E0,-3.280799866E0,-1.788782358E0
1.352519381E1,4.283012867E0,-3.281282187E0,-9.604806900E-1
1.354402027E1,4.168432713E0,-3.490464926E0,-3.197085857E-2
1.356284678E1,3.722978592E0,-4.015486717E0,3.283356428E-1
1.358167323E1,2.874892235E0,-3.781249046E0,5.967406034E-1
1.360049969E1,1.653803825E0,-1.204631805E0,3.169904947E-1
1.361931303E1,-1.515304565E0,2.581248760E0,-3.443443775E-1
1.363815261E1,-5.397686958E0,4.313785553E0,4.196860790E-1
1.365697907E1,-6.758543015E0,2.722936869E0,3.323156834E-1
1.367580553E1,-6.865187645E0,1.985292673E0,-9.352146387E-1
1.369463198E1,-7.382926941E0,4.162711143E0,-2.042870522E0
1.371345844E1,-7.924950600E0,5.604003906E0,-2.612682343E0
1.373228495E1,-9.142281532E0,5.468338966E0,-1.958376884E0
1.375111141E1,-9.925672531E0,4.033700466E0,-1.289356589E0
1.376993787E1,-9.887190819E0,2.514493942E0,-1.431941271E0
1.378875120E1,-8.643289566E0,8.131408691E-1,-3.009978771E0
1.380759079E1,-6.589171410E0,-6.913332939E-1,-4.688765049E0
1.382641724E1,-4.341344357E0,-2.008795500E0,-5.197320938E0
1.384523063E1,2.833933830E-1,-5.534266472E0,-5.331385136E0
1.386407016E1,8.753585815E-1,-3.910703421E0,-3.580555677E0
1.388289667E1,2.251958847E-2,-3.371217251E0,-4.452982903E0
1.390172313E1,1.156620979E0,-2.313057184E0,-5.307152271E0
1.392054959E1,2.237596989E0,-1.118634939E0,-4.641543388E0
1.393937605E1,2.371925116E0,8.286857605E-2,-3.603870153E0
1.395820251E1,1.837638378E0,6.533107758E-1,-3.185538530E0
1.397702896E1,2.676280737E0,4.631495476E-1,-3.365753889E0
1.399585542E1,4.334934711E0,8.847470284E-1,-2.349511147E0
1.401466881E1,5.519106865E0,2.466671467E0,-9.671339989E-1
1.403350839E1,6.009258270E0,3.180214405E0,-1.447367668E-1
1.405233485E1,6.417683125E0,2.832724094E0,4.513897896E-1
1.407116131E1,6.386074543E0,1.795162201E0,8.077697754E-1
1.408998777E1,5.609367847E0,1.198606968E0,3.759860992E-2
1.410881422E1,3.208272219E0,1.588416100E0,-7.939038277E-1
1.412764073E1,1.899509192E0,1.218116760E0,-9.935102463E-1
1.414646719E1,2.033839941E0,4.558687210E-1,-8.675422668E-1
1.416529365E1,2.932274103E0,-2.194352150E-1,-5.052442551E-1
1.418412011E1,3.362956524E0,-5.712704659E-1,-4.982256889E-1
1.420294657E1,2.363214731E0,-1.127941608E0,-6.153378487E-1
1.422177308E1,2.574605703E0,-1.786449194E0,-1.203641415E0
1.424059954E1,3.366612673E0,-2.036186218E0,-2.254070759E0
1.425942600E1,4.099922657E0,-2.404112339E0,-3.022710323E0
1.427825245E1,4.171129227E0,-2.602342129E0,-3.801209450E0
1.429707891E1,3.558342457E0,-2.330564499E0,-4.689491272E0
1.431590537E1,3.137847424E0,-1.116455078E0,-5.462274551E0
1.433473188E1,2.981415749E0,1.438802719E0,-5.253372669E0
1.435354521E1,3.468295336E0,2.458060265E0,-3.281563520E0
1.437238480E1,3.648133755E0,1.095638275E0,-8.586854935E-1
1.439121126E1,3.494929314E0,1.530004025E0,1.533024311E0
1.441002464E1,3.374248505E0,3.647054672E0,3.619629860E0
1.442886422E1,3.106088161E0,4.811414719E0,4.779861450E0
1.444769068E1,2.453909874E0,7.460508823E0,3.919616222E0
1.446650402E1,1.254895687E0,8.677655220E0,1.859724522E0
1.448534360E1,-1.530742645E-1,7.309364796E0,-8.422803879E-1
1.450417006E1,-2.188854218E0,5.679422379E0,-2.468871117E0
1.452298339E1,-4.839092731E0,4.259832382E0,-2.735311747E0
1.454182297E1,-7.584946156E0,2.108634472E0,-2.118623257E0
1.456064943E1,-7.146002293E0,-2.275572300E0,-1.027964115E0
1.457946282E1,-4.408205032E0,-4.605456352E0,5.386718512E-1
1.459830240E1,-3.525872707E0,-5.040154457E0,2.904037952E0
1.461712886E1,-5.950656891E0,-2.862613678E0,3.837124586E0
1.463594219E1,-8.062485695E0,-1.412038803E0,3.499373913E0
1.465478178E1,-7.157006741E0,-1.672003746E0,2.493348598E0
1.467360829E1,-5.086547375E0,-1.963272095E-1,1.153941870E0
1.469242162E1,-5.979993343E0,1.364047527E0,-6.039602757E-1
1.471126120E1,-7.095765114E0,2.060199261E0,-2.073482990E0
1.473008766E1,-5.204158306E0,2.951578140E0,-3.071952581E0
1.474890100E1,-2.733316898E0,3.226857662E0,-2.649302244E0
1.476774058E1,-7.445149422E-1,2.810511589E0,-1.295902967E0
1.478656704E1,1.052367210E0,1.730865955E0,-2.309844494E-1
1.480538042E1,2.443252087E0,5.709390640E-1,9.097864628E-1
1.482422000E1,3.388253212E0,7.250175476E-1,1.659388065E0
1.484304646E1,4.457824230E0,1.592630386E0,1.121598244E0
1.486187292E1,5.253574848E0,1.731649876E0,5.767500401E-1
1.488069943E1,5.429633141E0,3.668684959E-1,4.956803322E-1
1.489952589E1,3.952995300E0,-1.449745655E0,3.393726349E-1
1.491833922E1,1.893832684E0,-3.187287331E0,-7.900826931E-1
1.493717881E1,2.414417267E-1,-5.025384903E0,-2.107142925E0
1.495600527E1,7.924394608E-1,-6.769561291E0,-3.294212103E0
1.497481865E1,2.883037329E0,-7.534380436E0,-3.505584240E0
1.499365823E1,4.315426826E0,-6.744623661E0,-2.996733904E0
1.501248469E1,5.256721497E0,-4.233000755E0,-2.823774576E0
1.503129803E1,5.627451897E0,-1.473951817E0,-3.296008110E0
1.505013761E1,4.983600140E0,-1.064801216E-1,-3.274193764E0
1.506896407E1,2.494841337E0,9.989423752E-1,-2.918231487E0
1.508777745E1,2.184596062E-1,1.629096508E0,-2.569495440E0
1.510661704E1,-2.189474583E0,2.982226849E0,-2.144402981E0
1.512544350E1,-4.828694820E0,5.640462875E0,-2.058749676E0
1.514425688E1,-6.765388012E0,7.880715370E0,-1.041071534E0
1.516309646E1,-7.206230640E0,8.164905548E0,3.641188145E-1
1.518192292E1,-6.712055206E0,6.723396301E0,7.862847447E-1
1.520073626E1,-5.420241356E0,5.156775475E0,7.560966015E-1
1.521957584E1,-4.067058086E0,1.169589043E0,1.080855608E0
1.523840235E1,-2.971382141E0,-3.030951500E0,1.839832902E0
1.525721568E1,-2.078558922E0,-6.097813606E0,1.660274744E0
1.527605527E1,-1.473829269E0,-6.501902580E0,7.858954668E-1
1.529488172E1,-5.650844574E-1,-5.291771889E0,-1.319810748E-1
1.531370818E1,2.202644348E-1,-3.718335629E0,-8.548861742E-1
1.533253469E1,6.073122025E-1,-2.171112537E0,-1.041012049E0
1.535136115E1,9.049744606E-1,-1.154136658E0,-1.236122847E0
1.537017448E1,7.395153046E-1,1.071729660E-1,-1.401371598E0
1.538901407E1,-1.351842880E-1,1.813858986E0,-1.510428429E0
1.540784058E1,-1.330145359E0,2.322217941E0,-1.510681152E0
1.542666704E1,-1.887148380E0,2.067393303E0,-1.062876582E0
1.544549350E1,-1.139706135E0,9.031324387E-1,-5.088544488E-1
1.546431995E1,-7.029042244E-1,-2.443485260E-1,7.276117802E-3
1.548314646E1,-1.314394951E0,-8.376278877E-1,1.347725987E-1
1.550197292E1,-2.078106403E0,-1.704959869E0,-1.372637749E-1
1.552079938E1,-2.508314133E0,-3.210946083E0,2.130943537E-2
1.553962584E1,-2.121730328E0,-4.614316463E0,3.178182244E-1
1.555845235E1,-8.756642342E-1,-5.772853851E0,6.806709766E-1
1.557727881E1,6.405460835E-1,-6.246833801E0,1.007723927E0
1.559610527E1,2.016038895E0,-6.248878479E0,1.079533935E0
1.561493172E1,2.991194487E0,-6.195520401E0,9.468396306E-1
1.563375823E1,3.401737452E0,-5.536015511E0,7.376623154E-1
1.565258469E1,3.369108200E0,-4.216575146E0,3.934110701E-1
1.567141115E1,2.682336330E0,-1.717170715E0,-1.595432907E-1
1.569023761E1,9.298617840E-1,2.239562035E0,-1.113405347E0
1.570905100E1,-1.518514156E0,6.234588623E0,-2.154757977E0
1.572789058E1,-3.555034637E0,8.180443764E0,-2.867466211E0
1.574671704E1,-5.369659424E0,8.326779366E0,-3.522023678E0
1.576553042E1,-7.595035553E0,7.463669777E0,-4.348505020E0
1.578437001E1,-8.740715981E0,7.274008751E0,-4.395001888E0
1.580319646E1,-8.126058578E0,8.153716087E0,-3.252004385E0
1.582200985E1,-6.707877636E0,9.092379570E0,-1.591715455E0
1.584084943E1,-5.167880535E0,9.440241814E0,2.661310732E-1
1.585967589E1,-4.175014496E0,8.851298332E0,2.318960428E0
1.587848928E1,-3.358964205E0,6.868812561E0,2.309235811E0
1.589732886E1,-2.370839834E0,3.794769287E0,1.202927470E0
1.591615532E1,-4.901185036E-1,5.305070877E-1,3.364539146E-1
1.593496870E1,1.694654822E0,-2.068768978E0,-4.929931164E-1
1.595380829E1,3.091251373E0,-5.141060829E0,-1.225428224E0
1.597263474E1,3.332065105E0,-7.920022964E0,-2.169082165E0
1.599144813E1,3.331727743E0,-9.626708984E0,-3.461956739E0
1.601028771E1,2.772943497E0,-9.984553337E0,-4.731295109E0
1.602911417E1,2.299068451E0,-9.429482460E0,-5.770868301E0
1.604792756E1,2.793221712E0,-7.782360077E0,-6.129774570E0
1.606676714E1,3.215936661E0,-5.213110924E0,-5.321932793E0
1.608559360E1,3.118790150E0,-1.838012218E0,-4.028438091E0
1.610440698E1,3.246516943E0,1.141870499E0,-2.544734955E0
1.612324657E1,3.971746206E0,2.489681244E0,-1.291893721E0
1.614207303E1,4.854833126E0,3.265763283E0,2.868108749E-1
1.616089954E1,4.507130623E0,3.770865440E0,1.683075428E0
1.617972600E1,2.945007801E0,3.674490929E0,2.477010250E0
1.619855245E1,9.061229229E-1,3.571413994E0,2.820994377E0
1.621736584E1,-8.944396973E-1,3.475054741E0,2.555115700E0
1.623620542E1,-1.649251223E0,2.122839928E0,2.181321621E0
1.625503188E1,-1.174498558E0,2.658033371E-1,1.980467916E0
1.627384527E1,-2.216439247E-1,-1.599284172E0,2.034775734E0
1.629268485E1,8.510930538E-1,-3.253592491E0,1.920140862E0
1.631151136E1,1.554709554E0,-5.030291557E0,1.900924325E0
1.633032469E1,2.057750463E0,-6.718982697E0,1.462023139E0
1.634916428E1,2.661258221E0,-8.316047668E0,6.205966473E-1
1.636799079E1,3.170980215E0,-9.365007401E0,-6.617440581E-1
1.638681724E1,3.525850296E0,-9.343224525E0,-1.626357555E0
1.640564370E1,3.913727283E0,-6.365969658E0,-1.950394273E0
1.642447021E1,4.282761574E0,-4.233341217E-1,-2.808819532E0
1.644328355E1,3.773558617E0,5.804830551E0,-2.482855797E0
1.646212318E1,3.897757769E0,9.721251488E0,-1.270630956E0
1.648094964E1,3.340074301E0,1.107586956E1,5.750839710E-1
1.649976303E1,1.052632570E0,1.320788956E1,2.306749344E0
1.651860261E1,-2.560673475E0,1.435718536E1,2.214778900E0
1.653742907E1,-3.818220377E0,1.049283504E1,2.159614801E0
1.655624245E1,-1.850887060E0,7.606273651E0,2.184516907E0
1.657508204E1,1.958615780E-1,5.718278885E0,2.161060333E0
1.659390855E1,1.169524670E0,2.328361511E0,1.663493752E0
1.661272188E1,9.095208645E-1,-1.671322823E0,7.854850292E-1
1.663156146E1,-2.546117306E-1,-4.949948788E0,-9.793519974E-3
1.665038797E1,-1.256957769E0,-6.804044724E0,-6.245424151E-1
1.666921443E1,-1.704897881E0,-6.946383476E0,-1.075255394E0
1.668804089E1,-1.242419481E0,-6.259461403E0,-1.396204472E0
1.670686740E1,-3.163967133E-1,-5.030220509E0,-1.611030817E0
1.672568073E1,9.880113602E-2,-3.375702858E0,-1.700559855E0
1.674452032E1,-7.996273041E-2,-1.066926003E0,-1.240654230E0
1.676334683E1,-1.201527119E0,2.817784309E0,-5.254942775E-1
1.678216016E1,-2.364372253E0,5.413531303E0,4.769468307E-2
1.680099975E1,-4.706162930E0,5.837375641E0,4.337637424E-1
1.681982626E1,-7.021630764E0,3.560235500E0,4.135167599E-1
1.683863959E1,-9.028450966E0,1.370810509E0,-9.298782349E-1
1.685747922E1,-9.642207146E0,8.519568443E-1,-1.402465224E0
1.687630568E1,-7.650463581E0,1.163396358E0,-1.326545119E0
1.689511907E1,-4.292695522E0,1.587182522E0,-5.558266640E-1
1.691395865E1,-1.697120667E0,1.771616936E0,2.034211159E-1
1.693278511E1,3.500089645E-1,1.997134686E0,1.383509636E-1
1.695161162E1,1.302951574E0,1.444766045E0,-4.300184250E-1
1.697043808E1,7.920575142E-1,-4.230318069E-1,-1.150006533E0
1.698926454E1,3.437862396E-1,-2.432953835E0,-2.416975498E0
1.700809105E1,1.040920258E0,-3.462666273E0,-3.600038052E0
1.702691750E1,2.707280397E0,-4.191895008E0,-4.700887680E0
1.704574402E1,4.941071033E0,-4.103673935E0,-5.593511105E0
1.706455735E1,6.396663666E0,-3.024120331E0,-5.587552071E0
1.708339693E1,7.143305779E0,-2.268085003E0,-5.029780388E0
1.710222344E1,6.321097374E0,-2.043644190E0,-4.319327354E0
1.712103678E1,3.270349503E0,-2.477218628E0,-4.802744865E0
1.713987641E1,-6.520600319E-1,-2.746055126E0,-6.041879654E0
1.715870287E1,-3.795293808E0,-2.530377150E0,-6.267026901E0
1.717752938E1,-4.798189640E0,-2.160661459E0,-5.238095284E0
1.719635584E1,-3.814748287E0,-6.263599396E-1,-3.057106256E0
1.721518235E1,-2.274225712E0,2.045317173E0,1.909222603E-1
1.723399573E1,-2.132509708E0,3.672773361E0,2.892915726E0
1.725283532E1,-4.174961090E0,3.309116364E0,4.061051846E0
1.727166178E1,-6.108960629E0,2.571157932E0,3.908765793E0
1.729048829E1,-6.658152580E0,2.135575771E0,3.600925922E0
1.730931475E1,-5.491105080E0,6.873607635E-1,2.933203697E0
1.732814126E1,-4.078919411E0,-8.800077438E-1,1.695819855E0
1.734695464E1,-3.236211777E0,-2.220671892E0,2.834544182E-1
1.736579422E1,-2.563658714E0,-2.328833580E0,-1.054001093E0
1.738462068E1,-1.930669785E0,-1.240225792E0,-1.491229773E0
1.740344719E1,-1.254401207E0,2.974367142E-2,-8.981461525E-1
1.742227365E1,-7.589683533E-1,7.417120934E-1,-3.849291801E-1
1.744110016E1,-7.411651611E-1,1.509511709E0,-3.554344177E-3
1.745992662E1,-1.010222435E0,1.909366369E0,4.017831087E-1
1.747875308E1,-1.998392105E0,2.518310547E0,1.074283838E0
1.749757959E1,-3.449739456E0,2.917704582E0,2.066533566E0
1.751639292E1,-4.890457153E0,2.686494589E0,2.387614012E0
1.753523256E1,-5.718885422E0,2.988279104E0,2.582751751E0
1.755405902E1,-5.164970398E0,3.886978388E0,2.681771994E0
1.757288553E1,-4.193046570E0,4.852149010E0,2.866228342E0
1.759171198E1,-2.896972656E0,5.462702751E0,3.124672174E0
1.761053844E1,-1.450885773E0,4.874784946E0,2.524924755E0
1.762935183E1,6.129608154E-1,3.938987970E0,7.696422935E-1
1.764819141E1,4.414326191E0,3.965726376E0,-7.161113620E-1
1.766701792E1,7.796034813E0,5.130881310E0,1.246815920E-2
1.768583126E1,1.086925697E1,6.852472305E0,2.079088688E-1
1.770467084E1,1.311550426E1,5.841814995E0,1.084050655E0
1.772349735E1,1.230262184E1,3.197130203E0,2.361153364E-1
1.774231073E1,9.816097260E0,1.947276354E0,-1.673436880E0
1.776115032E1,7.189101219E0,1.816407204E0,-7.705085874E-1
1.777997678E1,5.510987282E0,2.022705078E-1,1.184513807E0
1.779879016E1,4.230894566E0,-1.875445366E0,5.172635555E0
1.781762974E1,2.038254738E0,-3.195766926E0,8.797404289E0
1.783645620E1,8.122744560E-1,-2.471622944E0,1.186757851E1
1.785528271E1,1.767089367E0,-5.658159256E-1,1.337265015E1
1.787410917E1,1.437820435E0,6.902105808E-1,1.061632729E1
1.789293568E1,-3.883107185E0,5.832223892E0,7.905505180E0
1.791174902E1,-8.998653412E0,1.006166172E1,4.164651394E0
1.793058860E1,-1.017274475E1,9.827915192E0,-5.962181091E-1
1.794941511E1,-9.649897575E0,7.993892670E0,-3.524914742E0
1.796822850E1,-1.041736412E1,7.004707336E0,-6.687919617E0
1.798706808E1,-9.982292175E0,3.729353905E0,-1.013878632E1
1.800589454E1,-5.443167686E0,1.003218442E-1,-1.184858894E1
1.802470792E1,1.982755661E-1,7.217037082E-1,-1.081560326E1
1.804354750E1,1.999255180E0,-1.210203171E0,-8.130195618E0
1.806237402E1,2.217773914E0,-5.363642693E0,-9.503506660E0
1.808120047E1,1.597309113E0,-5.882689953E0,-1.118843269E1
1.810002698E1,2.601536274E0,-4.356474400E0,-1.146519279E1
1.811885344E1,2.673103333E0,-2.170367241E0,-8.840590477E0
1.813766683E1,1.881837368E0,-1.566360474E0,-6.864863396E0
1.815650641E1,1.252240658E0,-1.310742974E0,-6.596494675E0
1.817533292E1,-3.108348846E-1,-2.790031433E-1,-5.868868828E0
1.819414631E1,-1.719277382E0,2.074173450E0,-5.824618816E0
1.821298589E1,-3.100186348E0,4.164958000E0,-4.896289825E0
1.823181235E1,-2.968770027E0,4.214972973E0,-4.269804478E0
1.825062573E1,-1.252723694E0,4.231222153E0,-2.931719303E0
1.826946532E1,5.760946274E-1,5.657965660E0,-2.117687702E0
1.828829183E1,1.695891857E0,6.901605606E0,-7.715263367E-1
1.830710521E1,2.627417088E0,6.774604797E0,1.732560635E0
1.832594480E1,2.997440815E0,4.566653728E0,2.802556992E0
1.834477131E1,2.211683750E0,1.777295589E0,1.740655422E0
1.836358464E1,1.654818535E0,-3.289151192E-1,-7.584700584E-1
1.838242422E1,2.229232788E0,-3.222849846E0,-3.225253582E0
1.840125073E1,3.484968662E0,-5.054367065E0,-3.786220551E0
1.842006407E1,5.880926609E0,-5.984838009E0,-4.856952667E0
1.843890370E1,9.251420975E0,-6.383070469E0,-4.751388073E0
1.845773016E1,1.129476357E1,-6.800780773E0,-3.587337494E0
1.847655667E1,1.169225502E1,-6.567555904E0,-3.787981749E0
1.849538313E1,9.541355133E0,-3.196043491E0,-3.404599905E0
1.851420964E1,6.355619431E0,3.203870773E0,-2.162622690E0
1.853302297E1,3.455234766E0,8.571172714E0,-2.472114563E-2
1.855186261E1,7.744507790E-1,9.594704628E0,3.026517868E0
1.857068907E1,-3.703956127E0,9.144735336E0,4.465775967E0
1.858950245E1,-9.291231155E0,8.279934883E0,3.624592781E0
1.860834204E1,-1.101069736E1,7.914375782E0,2.218600750E0
1.862716850E1,-8.067777634E0,8.500603676E0,2.511424065E0
1.864598188E1,-3.699542046E0,8.837878227E0,3.034743786E0
1.866482146E1,-5.967087746E-1,8.879728317E0,3.527676821E0
1.868364797E1,1.273759842E0,7.062098503E0,2.904867411E0
1.870246136E1,1.877019405E0,4.367449284E0,1.641493797E0
1.872130094E1,2.155189991E0,1.398359299E0,4.599732757E-1
1.874012740E1,2.578837395E0,-1.218509674E0,-3.157166839E-1
1.875894079E1,3.313256979E0,-3.580336809E0,-8.157364130E-1
1.877778037E1,4.177366257E0,-4.613200665E0,9.601616859E-2
1.879660688E1,4.304710388E0,-4.709346771E0,9.412727952E-1
1.881543334E1,3.539916277E0,-4.178917885E0,1.427030563E0
1.883425985E1,1.335832119E0,-3.007999420E0,1.808439255E0
1.885308631E1,-1.989474773E0,-7.539567947E-1,6.792403460E-1
1.887189969E1,-5.454940319E0,1.423186302E0,-8.167526722E-1
1.889073928E1,-9.420450211E0,1.681548595E0,-2.133378506E0
1.890956573E1,-1.146009445E1,4.590749741E-2,-4.072059155E0
1.892839224E1,-1.066090775E1,8.030700684E-1,-3.665673256E0
1.894721876E1,-7.377827644E0,2.362081528E0,-2.193714857E0
1.896604521E1,-3.494602680E0,2.679543495E0,-7.874448299E-1
1.898485860E1,-3.851819038E-1,2.717393875E0,6.704635620E-1
1.900369818E1,1.773109436E0,1.736782551E0,1.208599925E0
1.902252464E1,2.457057953E0,-3.488683701E-2,1.711637855E0
1.904133803E1,1.963732243E0,-1.265804768E0,2.851646423E0
1.906017761E1,1.607918262E0,-2.498302937E0,3.256844044E0
1.907900412E1,2.604845047E0,-3.995426178E0,2.606357336E0
1.909783058E1,3.688996315E0,-4.668727875E0,1.941399097E0
1.911665709E1,4.396871090E0,-4.450202942E0,1.957451582E0
1.913548355E1,5.152881622E0,-3.824365616E0,2.853030682E0
1.915431006E1,5.553491592E0,-3.621737003E0,3.686254978E0
1.917313652E1,5.703748703E0,-4.523505211E0,3.562842369E0
1.919196303E1,4.948500633E0,-5.612926006E0,2.272758484E0
1.921077641E1,3.436381817E0,-5.047073364E0,4.729406834E-1
1.922961600E1,1.906466484E0,-2.739681005E0,-1.581810951E0
1.924844250E1,3.708219528E-2,-1.612730026E-1,-2.309797287E0
1.926725584E1,-3.194926262E0,2.153294086E0,-1.782090187E0
1.928609547E1,-7.525526524E0,3.994524479E0,-2.538248777E0
1.930492193E1,-1.121615601E1,5.766485691E0,-3.515698433E0
1.932373532E1,-1.284849930E1,7.988596916E0,-2.673388720E0
1.934257495E1,-1.310737801E1,9.701125145E0,-1.128408432E0
1.936140141E1,-1.138324070E1,9.209346771E0,-1.381144524E-1
1.938021480E1,-7.930781364E0,7.492662907E0,1.253768206E0
1.939905443E1,-5.923254967E0,4.152314663E0,2.079758644E0
1.941788089E1,-3.068431854E0,-4.337873459E-1,2.168971539E0
1.943669428E1,-2.858834267E-1,-4.167742729E0,3.234745502E0
1.945553391E1,1.860445023E0,-5.199003220E0,3.779464245E0
1.947436037E1,3.172342777E0,-3.604243040E0,3.333322048E0
1.949318688E1,3.149829388E0,-1.094762802E0,2.396208286E0
1.951201334E1,1.950772762E0,1.572978497E0,3.954143047E0
1.953083985E1,5.881495476E-1,3.135000706E0,3.954686165E0
1.954965323E1,1.685628891E-1,3.998454571E0,3.487340927E0
1.956849282E1,-4.238109589E-1,6.182102680E0,4.845083237E0
1.958731928E1,-5.333061218E-1,7.000916004E0,5.145802498E0
1.960614579E1,-1.488286018E0,8.125144958E0,5.192808151E0
1.962497225E1,-2.561551094E0,9.752340317E0,3.331377745E0
1.964379876E1,-1.677388191E0,9.567382812E0,6.198214293E-1
1.966261214E1,1.214509010E0,7.170680523E0,-2.135087729E0
1.968145172E1,3.230594635E0,5.109271049E0,-4.011584759E0
1.970027823E1,4.151207924E0,3.405200481E0,-5.722668648E0
1.971909157E1,5.051916122E0,1.828669548E0,-7.483353615E0
1.973793120E1,5.800756931E0,5.459184647E-1,-9.028674126E0
1.975675766E1,6.382494450E0,-5.900849104E-1,-1.014469337E1
1.977558417E1,6.976581573E0,-1.473682523E0,-1.067532635E1
1.979441063E1,7.445116997E0,-2.086909771E0,-9.457143784E0
1.981323714E1,7.645880699E0,-1.895210981E0,-6.621332169E0
1.983205047E1,7.065196037E0,-1.085263729E0,-4.885438919E0
1.985089011E1,4.688898087E0,-8.699064255E-1,-4.649190903E0
1.986971657E1,2.183774948E0,-9.083611965E-1,-3.314186811E0
1.988852995E1,5.837583542E-1,-5.416927934E-1,-6.594133377E-1
1.990736954E1,-3.193777084E0,-7.281436324E-1,-9.937887192E-1
1.992619605E1,-9.192223549E0,1.792644262E-1,-3.073999882E0
1.994500943E1,-1.098037338E1,2.054248571E0,-4.275687218E0
1.996384902E1,-1.062172127E1,-2.664781213E-1,-6.138956547E0
1.998267547E1,-1.155615330E1,-3.285121918E0,-8.202222824E0
2.000148886E1,-1.166620445E1,-4.873658657E0,-1.053026009E1
2.002032844E1,-1.191451836E1,-5.216014862E0,-1.206127262E1
2.003915495E1,-1.047320271E1,-4.039457321E0,-1.190268612E1
2.005796834E1,-7.418556213E0,-3.636369705E0,-1.223853779E1
2.007680792E1,-3.345268250E0,-2.305254459E0,-1.096685886E1
2.009563443E1,5.650739670E-1,3.381041288E-1,-9.541196823E0
2.011444777E1,3.746688366E0,2.773890495E0,-8.798688889E0
2.013328740E1,6.678684235E0,5.547921658E0,-8.296820641E0
2.015211386E1,8.479348183E0,8.747695923E0,-7.011765480E0
2.017092724E1,8.776868820E0,1.127114677E1,-5.445845127E0
2.018976683E1,8.375589371E0,1.228666306E1,-3.996513844E0
2.020859334E1,7.905851364E0,1.185781860E1,-2.600852966E0
2.022740672E1,5.649280548E0,1.234743214E1,-1.345190525E0
2.024624631E1,5.583152771E-1,1.301619625E1,-1.414470673E0
2.026507277E1,-4.961249352E0,1.091766167E1,-1.379352570E0
2.028388615E1,-8.595255852E0,9.556519508E0,-9.204668999E-1
2.030272573E1,-8.653987885E0,8.012038231E0,-1.363587379E-2
2.032155225E1,-6.987654686E0,6.542916775E0,8.226076365E-1
2.034036563E1,-5.371564865E0,6.126755238E0,9.697775245E-1
2.035920521E1,-3.241186142E0,5.707796097E0,3.473242521E-1
2.037803172E1,-3.621606827E-1,5.585155010E0,-2.161416411E-2
2.039684511E1,2.400261879E0,5.978525162E0,1.174311399E0
2.041568469E1,4.977612495E0,5.302468300E0,2.748924732E0
2.043451115E1,7.161339760E0,3.265295267E0,3.216119289E0
2.045332454E1,8.241439819E0,1.074331760E0,2.464824438E0
2.047216417E1,8.314311981E0,1.391726732E-1,7.456098199E-1
2.049099063E1,7.603924274E0,9.690657854E-1,-1.394826889E0
2.050980402E1,6.098479271E0,2.541099548E0,-2.645840168E0
2.052864360E1,5.679172516E0,2.623028994E0,-3.654224634E0
2.054747011E1,7.370046616E0,1.017624855E0,-4.163193703E0
2.056629662E1,8.825962067E0,7.660706043E-1,-3.714420080E0
2.058512308E1,9.084932327E0,3.629398346E-2,-2.512249947E0
2.060394959E1,7.936617851E0,1.955972672E0,-1.634123802E0
2.062276297E1,5.899230003E0,7.803226471E0,-5.959692001E-1
2.064160256E1,3.492805004E0,1.097570801E1,7.506876588E-1
2.066042907E1,5.946063995E-2,9.605909348E0,1.540285230E0
2.067924240E1,-4.573330879E0,7.697903633E0,1.109393835E-1
2.069808204E1,-8.913664818E0,7.810515404E0,-1.569527149E0
2.071690855E1,-1.029502201E1,7.761048317E0,-2.819552183E0
2.073572188E1,-8.636240005E0,7.027541637E0,-1.941297054E0
2.075456152E1,-7.254415035E0,5.124449253E0,-1.310353279E0
2.077338797E1,-6.200674057E0,4.312654972E0,-2.010105848E0
2.079220136E1,-4.613699913E0,3.846017838E0,-1.318258762E0
2.081104094E1,-2.116954803E0,2.171110630E0,2.954630852E-1
2.082986745E1,-8.285999298E-1,-1.594707489E0,1.424651861E0
2.084868084E1,-1.598640442E0,-6.046702862E0,-1.737461090E-1
2.086752042E1,-2.706768036E0,-6.461312771E0,-2.517421722E0
2.088634693E1,-5.961040974E0,-4.196224689E0,9.842758179E-1
2.090516032E1,-1.206740379E1,-1.069199562E0,-7.003984451E-1
2.092399990E1,-1.690267372E1,5.134854317E-1,-4.636383533E0
2.094282641E1,-1.270981979E1,2.743259430E0,-1.799386024E0
2.096163975E1,-4.489756107E0,5.704613209E0,2.060580254E0
2.098047938E1,2.274271011E0,6.114428997E0,2.094082355E0
2.099930584E1,9.465704918E0,4.204035759E0,2.781107426E0
2.101811922E1,1.136245155E1,3.794924259E0,5.467394352E0
2.103695886E1,8.533550262E0,1.951734066E0,6.108603477E0
2.105578532E1,4.620263100E0,1.418118477E0,6.221322536E0
2.107459870E1,2.073238850E0,1.663906574E0,3.297982931E0
2.109343829E1,-9.163055420E-1,3.217113495E0,-1.280879974E-1
2.111226480E1,-3.729698658E0,4.076907158E0,-2.222685814E-1
2.113109126E1,-3.510945797E0,2.512508869E0,9.390187263E-1
2.114991777E1,-1.996907234E0,8.960604668E-1,1.595031261E0
2.116874428E1,-1.908031940E0,-5.077762604E-1,2.982608080E0
2.118757073E1,-1.865139008E0,-1.598753452E0,4.519635201E0
2.120639724E1,-9.940457344E-1,-2.736419201E0,4.325364113E0
2.122522376E1,1.205916405E-1,-3.443705797E0,3.301357746E0
2.124405021E1,1.567112923E0,-3.855942488E0,2.125123262E0
2.126287672E1,3.382956743E0,-4.345024109E0,7.083129883E-1
2.128170323E1,5.650340080E0,-4.215891838E0,-1.071123123E0
2.130052969E1,6.574352741E0,-3.405025959E0,-1.326938868E0
2.131935620E1,6.887797356E0,-3.790350199E0,-1.469246387E0
2.133818271E1,5.462011337E0,-3.505260706E0,-2.139563560E0
2.135699610E1,2.034646034E0,-1.418507576E0,-2.887708426E0
2.137583568E1,-1.463876724E0,3.568086624E-1,-3.509793520E0
2.139466219E1,-6.215089798E0,2.678333282E0,-2.798494101E0
2.141347558E1,-1.184631348E1,4.230501175E0,-3.250329494E0
2.143231516E1,-1.568293190E1,6.675905704E0,-3.906229734E0
2.145114167E1,-1.475514984E1,1.059713936E1,-2.233505249E0
2.146995506E1,-1.103543091E1,1.152281666E1,-4.310209751E-1
2.148879469E1,-6.850674629E0,9.139219284E0,1.138800383E0
2.150762115E1,-3.441049576E0,5.149030685E0,1.258262396E0
2.152643454E1,-1.048868179E0,5.741896629E-1,7.589764595E-1
2.154527417E1,1.547152519E0,-3.314320087E0,7.743461132E-1
2.156410068E1,4.091483116E0,-4.350799084E0,1.903052807E0
2.158291407E1,5.933281898E0,-3.703565121E0,3.080952168E0
2.160175365E1,5.749621391E0,-2.618528843E0,3.796199322E0
2.162058016E1,3.110693455E0,-1.054514885E0,4.395076752E0
2.163939355E1,-2.196885586E0,2.717609406E-1,5.550490856E0
2.165823313E1,-4.632292747E0,5.001363754E-1,5.387156487E0
2.167705964E1,-4.017294884E0,1.628727436E0,3.547328711E0
2.169587303E1,-2.905163765E0,5.948268414E0,3.257384062E0
2.171471261E1,-2.985319138E0,9.852176666E0,3.900629520E0
2.173353912E1,-3.134389877E0,1.025517464E1,2.713721991E0
2.175235250E1,-2.750490189E0,1.019193554E1,3.531521559E-1
2.177119209E1,-2.002304077E0,9.715127945E0,-2.932047844E0
2.179001860E1,-1.230333328E0,8.429353714E0,-6.798075676E0
2.180883198E1,-3.667287827E-1,6.651371956E0,-8.952100754E0
2.182767157E1,1.432698250E0,4.441950321E0,-1.026860428E1
2.184649808E1,3.158935547E0,2.239154339E0,-1.089177227E1
2.186531146E1,4.554056644E0,9.523975849E-2,-1.136005306E1
2.188415105E1,6.154406548E0,-1.808467865E0,-1.120396137E1
2.190297756E1,7.542457581E0,-2.530840874E0,-1.000072861E1
2.192180402E1,8.302877426E0,-3.021226645E0,-9.209321976E0
2.194063053E1,8.222145081E0,-2.861998558E0,-7.587305069E0
2.195945704E1,7.905264854E0,-1.983103991E0,-5.064434528E0
2.197828350E1,7.713123322E0,-4.265210927E-1,-3.488032103E0
2.199711000E1,6.782508850E0,6.224062443E-1,-3.751066446E0
2.201593652E1,5.586710930E0,-7.957805693E-2,-3.709347248E0
2.203476297E1,4.524618149E0,-1.182404280E0,-2.988455772E0
2.205358948E1,1.964112282E0,-1.313762307E0,-3.780770302E0
2.207241600E1,-4.117074966E0,-1.385374665E0,-7.320907593E0
2.209122938E1,-1.211934566E1,-4.680810928E0,-1.212484455E1
2.211006896E1,-1.676514626E1,-8.138404846E0,-1.503333187E1
2.212889547E1,-1.206875706E1,-5.385061264E0,-1.474568653E1
2.214770881E1,-7.660954475E0,8.342832327E-2,-1.238890171E1
2.216654844E1,-5.883600235E0,3.144662142E0,-1.033439445E1
2.218537495E1,-4.448576927E0,4.816972256E0,-8.502197266E0
2.220418829E1,-3.156285286E0,5.413705349E0,-7.656674385E0
2.222302792E1,-1.871709824E0,5.485747337E0,-7.808519363E0
2.224185438E1,-6.399364471E-1,7.119750023E0,-7.315743923E0
2.226066777E1,1.115303040E0,1.010980225E1,-6.352339745E0
2.227950740E1,2.905826569E0,1.387500095E1,-4.661535263E0
2.229833386E1,4.122604370E0,1.566727352E1,-2.360314846E0
2.231714724E1,5.389872074E0,1.446876907E1,-4.485661983E-1
2.233598688E1,5.783107758E0,1.258128262E1,4.851279557E-1
2.235481339E1,3.996029854E0,1.177269363E1,8.624305129E-1
2.237362672E1,1.821171761E0,1.111372471E1,6.683875322E-1
2.239246636E1,7.417459488E-1,1.129027748E1,4.941842854E-1
2.241129287E1,-1.163368225E-1,1.201751900E1,9.793124199E-1
2.243011933E1,-1.151206970E0,1.183606911E1,2.596184015E0
2.244894584E1,-2.278409958E0,9.321870804E0,4.044042110E0
2.246777235E1,-3.127301216E0,6.971957207E0,4.533223629E0
2.248659881E1,-3.083035469E0,5.725446224E0,4.273071766E0
2.250542532E1,-2.243106842E0,5.457921505E0,3.891848087E0
2.252425183E1,-7.820558548E-1,4.931471348E0,3.527089596E0
2.254306521E1,1.514906883E0,3.648776531E0,2.268723011E0
2.256190480E1,4.344832420E0,2.699382305E0,9.646437168E-1
2.258073131E1,6.778984070E0,2.372071505E0,3.262566328E-1
2.259954469E1,8.424869537E0,1.527543545E0,-2.045746595E-1
2.261838428E1,9.303373337E0,-2.462551594E-1,-1.277296782E0
2.263721079E1,9.005537987E0,-1.174512386E0,-1.991085052E0
2.265603730E1,7.946955204E0,-1.676171541E0,-3.337847948E0
2.267486376E1,7.061712265E0,-3.231092215E0,-4.414471626E0
2.269369027E1,6.853117466E0,-5.044627190E0,-5.490594387E0
2.271250365E1,6.123018265E0,-4.312068939E0,-5.206936836E0
2.273134329E1,3.538925648E0,9.942493439E-1,-3.584505796E0
2.275016974E1,1.717339039E0,9.384555817E0,-2.198276997E0
2.276898313E1,8.405761719E-1,1.178544426E1,-3.238507509E-1
2.278782277E1,-1.973891258E0,7.742178440E0,-3.898441792E-2
2.280664922E1,-6.075417042E0,5.938294411E0,-1.916029692E0
2.282546261E1,-9.213027954E0,6.771152496E0,-3.948905945E0
2.284430224E1,-9.706506729E0,7.740401745E0,-2.617815256E0
2.286312876E1,-6.937424183E0,6.818593979E0,-2.531439066E0
2.288194214E1,-4.981482506E0,9.307645798E0,-1.023402691E0
2.290078172E1,-3.191991806E0,9.699264526E0,1.964864731E-1
2.291960823E1,-1.196674347E0,5.794861794E0,3.540287018E0
2.293842162E1,5.864839554E-1,2.297107220E0,6.685067177E0
2.295726120E1,1.428268909E0,-8.875193596E-1,6.582981110E0
2.297608771E1,-2.701077461E0,-7.218618393E-1,6.644189835E0
2.299490110E1,-6.497976303E0,-3.965868711E0,-2.668299675E-1
2.301374068E1,-6.471134663E0,-5.132579803E0,-1.732437611E0
2.303256719E1,-5.378798008E0,-1.332377434E0,-3.350629807E-1
2.305138058E1,-4.318031311E0,2.169885635E0,9.903683662E-1
2.307022021E1,-3.316110611E0,5.547964096E0,2.030422688E0
2.308904667E1,1.916790009E-2,2.786575794E0,6.665765762E0
2.310786006E1,2.352475643E0,1.176388741E0,6.757390022E0
2.312669969E1,5.044798851E-1,2.932518005E0,2.529460430E0
2.314552615E1,-3.606484413E0,4.816757679E0,-3.870515823E-1
2.316433954E1,-4.734443665E0,3.504232883E0,-2.400608540E0
2.318317917E1,-2.835982800E0,7.948923111E-1,-1.456051350E0
2.320200568E1,-1.174410820E0,6.100020409E-1,2.227846146E0
2.322081907E1,1.417032242E0,1.123533726E0,3.983341455E0
2.323965865E1,2.306568861E0,3.080506325E-1,4.431857586E0
2.325848516E1,3.275336266E0,-5.335111618E-1,2.792132139E0
2.327731167E1,3.163168192E0,-1.585840940E0,9.249749184E-1
2.329613813E1,2.974566221E0,-2.622605324E0,1.319180489E0
2.331496464E1,3.368350744E0,-3.348500729E0,2.406685591E0
2.333377803E1,4.085074425E0,-4.143229485E0,3.391709805E0
2.335261761E1,2.519673586E0,-3.614038944E0,3.978714705E0
2.337144412E1,1.549182892E0,-4.425051689E0,2.999186993E0
2.339027063E1,1.347429752E0,-4.234951019E0,2.251128435E0
2.340909714E1,-3.183894157E-1,-3.558769226E0,2.076407194E0
2.342792360E1,-1.883070946E0,-3.848408699E0,6.220812798E-1
2.344673698E1,-1.557795525E0,-4.612515450E0,-1.700632095E0
2.346557662E1,-1.156277180E0,-3.810571909E0,-2.231429577E0
2.348440313E1,-2.208060265E0,-9.155893326E-2,-1.235412121E0
2.350321652E1,-3.827682972E0,2.342739582E0,-3.135129929E0
2.352205610E1,-5.392887115E0,7.040652275E0,-2.911569118E0
2.354088261E1,-5.950469017E0,1.153852177E1,-2.380475998E-1
2.355969600E1,-8.139154434E0,1.254540825E1,1.229204893E0
2.357853563E1,-1.048103142E1,1.213390160E1,4.426612854E-1
2.359736214E1,-8.574445724E0,8.669227600E0,-6.364493370E-1
2.361617553E1,-3.139417171E0,3.431005955E0,3.466348648E-1
2.363501511E1,2.218179941E0,-1.343537331E0,2.953126669E0
2.365384162E1,6.993660927E0,-4.637575150E0,3.517905712E0
2.367265501E1,1.069807053E1,-4.617625237E0,3.689352512E0
2.369149464E1,1.110140991E1,-3.472825050E0,5.033136845E0
2.371032110E1,8.964754105E0,-2.109925270E0,4.677592278E0
2.372913448E1,4.270825386E0,-7.907490730E-1,1.828364134E0
2.374797412E1,-1.177592278E-1,-7.665371895E-1,-1.056227207E0
2.376680063E1,-2.666713715E0,-1.693830490E-1,-2.625284195E0
2.378561402E1,-3.304176807E0,1.035809517E0,-3.617996931E0
2.380445360E1,-3.313209057E0,3.236874580E0,-4.224667072E0
2.382328011E1,-2.694890976E0,5.547839165E0,-3.587571621E0
2.384210662E1,-2.027415752E0,6.931859016E0,-3.059394360E0
2.386093313E1,-1.134270906E0,7.410388947E0,-3.687476158E0
2.387975964E1,-1.057321548E0,7.466185570E0,-4.243919373E0
2.389857303E1,-1.387973309E0,5.589406967E0,-5.291785717E0
2.391741261E1,-1.868794441E0,1.107880592E0,-6.621278763E0
2.393623912E1,-1.801548719E0,-3.593796730E0,-8.398210526E0
2.395505250E1,-1.354300261E0,-6.201504707E0,-8.523202896E0
2.397389214E1,-5.441455841E-1,-8.022185326E0,-7.843697548E0
2.399271860E1,7.041274309E-1,-1.100278568E1,-7.748676300E0
2.401154511E1,9.493300915E-1,-1.201968002E1,-6.681955338E0
2.403037162E1,1.858553648E0,-1.080354404E1,-4.614127159E0
2.404919813E1,3.919953346E0,-8.136684418E0,-3.679785490E0
2.406801152E1,4.997098446E0,-5.917065144E0,-4.432689667E0
2.408685110E1,4.245187759E0,-1.196290970E0,-1.555248737E0
2.410567761E1,3.068780422E0,8.221508980E0,3.583433628E0
2.412449100E1,-1.772637367E-1,1.211248398E1,6.835655212E0
2.414333063E1,-8.998744965E0,1.015025997E1,5.488418579E0
2.416215714E1,-1.644549942E1,7.064933300E0,3.897738934E0
2.418097053E1,-1.179173088E1,4.573281765E0,4.323394299E0
2.419981011E1,-4.990604877E0,5.080747128E0,5.295424461E0
2.421863662E1,-6.962532997E-1,7.580150127E0,4.250315666E0
2.423745001E1,9.478452206E-1,7.815592766E0,1.262114286E0
2.425628964E1,7.690429688E-2,2.597847462E0,-1.824250937E0
2.427511615E1,-1.395479679E0,-3.732868671E0,-4.372220516E0
2.429392954E1,-6.562676430E-1,-7.010023117E0,-5.583365440E0
2.431276912E1,2.146563053E0,-6.561024189E0,-5.501043320E0
2.433159563E1,4.965470791E0,-4.716136932E0,-4.414889336E0
2.435040902E1,7.063711166E0,-2.317128658E0,-2.795717001E0
2.436924865E1,8.213723183E0,-6.234922409E-1,-1.221461535E0
2.438807516E1,9.099290848E0,-4.493622780E-1,-6.511473656E-1
2.440690162E1,8.945608139E0,-4.754381180E-1,-1.150584221E-1
2.442572813E1,7.230780602E0,5.688028336E-1,1.416678429E-1
2.444455464E1,5.948461533E0,1.464390755E0,9.572505951E-2
2.446338115E1,6.300020218E0,1.575417519E0,4.936609268E-1
2.448220766E1,6.579033852E0,1.605830193E0,1.402669907E0
2.450103412E1,5.467797279E0,1.937207222E0,1.562111855E0
2.451986063E1,4.053999901E0,2.691226006E0,9.929704666E-1
2.453868714E1,3.507604599E0,3.631858826E0,7.550010681E-1
2.455751365E1,2.908187628E0,5.054585457E0,2.698426247E-1
2.457632704E1,1.063594222E0,6.987613678E0,-1.400051117E-1
2.459516667E1,-1.360500455E0,7.301476002E0,-1.442519665E0
2.461399313E1,-2.544058323E0,5.144488335E0,-2.096776009E0
2.463280657E1,-3.455694437E0,2.757909298E0,-2.265056133E0
2.465164615E1,-4.354469776E0,7.107410431E-1,-3.360929966E0
2.467047266E1,-4.305327415E0,-4.835510254E-1,-4.246122360E0
2.468929917E1,-3.897921562E0,-1.134181023E0,-4.086699009E0
2.470812568E1,-3.259232521E0,-6.979761124E-1,-4.201447010E0
2.472695219E1,-2.170147181E0,-2.046514511E0,-4.681013107E0
2.474577870E1,-1.919596434E0,-2.255855560E0,-4.330013275E0
2.476460521E1,-1.925668240E0,-1.507021427E0,-3.777619600E0
2.478343167E1,-9.409290552E-1,-4.887428284E-1,-2.939755440E0
2.480224506E1,1.765290737E0,7.353734970E-1,-2.340779781E0
2.482108469E1,4.551040173E0,1.876433849E0,-1.833161831E0
2.483991120E1,6.850585938E0,1.851007462E0,-2.040224552E0
2.485873771E1,7.483243942E0,1.443726063E0,-2.670902729E0
2.487756422E1,6.755256176E0,9.512605667E-1,-3.359316826E0
2.489639073E1,4.914786816E0,1.555626392E0,-4.643618584E0
2.491520407E1,1.985406160E0,4.544468880E0,-6.080441475E0
2.493404370E1,-4.128746986E-1,4.452093124E0,-6.522953510E0
2.495287021E1,-9.647336006E-1,1.755774498E0,-8.274023056E0
2.497168360E1,-6.414842606E-1,1.734805107E0,-9.298256874E0
2.499052323E1,-3.524732590E-2,1.602706432E0,-9.348749161E0
2.500934974E1,-8.217878342E-1,5.554246902E-1,-7.541768074E0
2.502816313E1,-2.672950745E0,-1.928269863E0,-5.348844051E0
2.504700271E1,-4.887131691E0,-3.737789154E0,-4.022133350E0
2.506582922E1,-5.512217045E0,-4.115536690E0,-4.259811401E0
2.508465573E1,-5.626602650E0,-2.881946325E0,-3.689873695E0
2.510348225E1,-5.665083885E0,-1.094662189E0,-2.993982315E0
2.512230876E1,-5.951044083E0,3.256773949E-1,-1.437325716E0
2.514112214E1,-7.662400246E0,2.352018356E0,-8.631458282E-1
2.515996172E1,-9.547604561E0,3.202900887E0,-2.467155933E0
2.517878823E1,-1.109085274E1,3.464545250E0,-3.638721466E0
2.519760162E1,-1.034499741E1,4.035816193E0,-2.312139988E0
2.521644126E1,-6.487837791E0,4.004719734E0,-1.097676277E0
2.523526777E1,-2.712076664E0,2.590978622E0,-3.818969727E-1
2.525408115E1,-2.519688606E-1,-9.972825050E-1,-8.803157806E-1
2.527292073E1,5.874958038E-1,-4.017090797E0,-1.005444527E-1
2.529174724E1,7.356367111E-1,-5.512652397E0,4.527747631E-1
2.531057376E1,1.448592186E0,-6.171011925E0,6.110508442E-1
2.532940027E1,2.288570881E0,-6.075650692E0,3.589753151E0
2.534822678E1,3.016758680E0,-4.759312153E0,5.755279064E0
2.536705329E1,3.454429388E0,-3.889314413E0,4.899147987E0
2.538587980E1,3.597937822E0,-3.306274891E0,4.130800724E0
2.540470626E1,4.169159889E0,-2.471410036E0,4.334468365E0
2.542353277E1,5.807352066E0,-2.190791368E0,4.980801582E0
2.544235928E1,6.031111240E0,-1.733423233E0,5.005481243E0
2.546118579E1,4.162772179E0,-1.285151482E0,4.089239120E0
2.547999917E1,2.161683083E0,-2.656793594E-2,2.719391584E0
2.549883881E1,1.863670349E-2,1.161883831E0,1.189401627E0
2.551766532E1,-1.670835018E0,1.395095825E0,-9.120512009E-2
2.553647870E1,-3.068800926E0,2.586955070E0,-1.251266003E0
2.555531834E1,-4.396104336E0,4.474371433E0,-3.132849693E0
2.557414485E1,-5.809811115E0,5.615023613E0,-4.817703724E0
2.559295823E1,-7.672521114E0,4.892055035E0,-6.442129612E0
2.561179782E1,-8.985898972E0,2.303771496E0,-7.700164795E0
2.563062433E1,-8.714672089E0,2.172288895E-1,-7.234733105E0
2.564943777E1,-6.407015800E0,-2.643282890E0,-4.596479893E0
2.566827735E1,-3.206714153E0,-5.894677162E0,-1.319653988E0
2.568710386E1,-3.928790092E-1,-6.923111439E0,7.897899151E-1
2.570591725E1,1.945546627E0,-4.972178459E0,2.006546974E0
2.572475688E1,3.584139347E0,-1.945862770E0,2.540898323E0
2.574358339E1,3.538671017E0,2.338991165E-1,2.956701279E0
2.576240990E1,2.284675360E0,7.729115486E-1,2.506110907E0
2.578123641E1,4.863877296E-1,7.946195602E-1,1.819440126E0
2.580006292E1,-3.302469254E-1,6.450629234E-1,7.955629826E-1
2.581888943E1,-3.610224724E-1,1.666518688E0,2.540352345E-1
2.583771594E1,-2.295761108E-1,3.403730869E0,-8.438241482E-2
2.585654245E1,-4.350843430E-1,4.625729084E0,-1.009465694E0
2.587536896E1,-8.045101166E-1,5.129384995E0,-2.219562054E0
2.589419547E1,-1.169735909E0,4.693815231E0,-3.595705032E0
2.591302198E1,-1.298613071E0,3.039723396E0,-4.537839413E0
2.593183537E1,-1.001808167E0,1.273186684E0,-6.651806831E0
2.595067495E1,-1.574743271E0,7.012948990E-1,-7.051888466E0
2.596950146E1,-1.977478981E0,1.980676651E-1,-7.084945202E0
2.598831490E1,-1.362734318E0,-2.222459793E0,-6.666297436E0
2.600715448E1,-1.169000149E0,-5.386165142E0,-6.456014633E0
2.602598100E1,-1.198769569E0,-8.163562775E0,-6.372209549E0
2.604479438E1,-8.544521332E-1,-1.027937317E1,-5.101891994E0
2.606363402E1,2.986779213E-1,-1.061094952E1,-3.615391254E0
2.608246053E1,2.696486473E0,-9.339813232E0,-3.338228464E0
2.610127391E1,5.741137981E0,-6.637397766E0,-2.689823389E0
2.612011355E1,6.434203148E0,-4.016667366E0,-2.731599569E0
2.613894006E1,5.311068535E0,-6.247677803E-1,-3.430714607E0
2.615775344E1,1.625374794E0,4.472340584E0,-3.342468739E0
2.617659308E1,-4.018786907E0,9.820782661E0,-4.360317707E0
2.619541959E1,-8.862815857E0,1.107749557E1,-2.873679161E0
2.621423297E1,-1.390432930E1,8.947982788E0,-2.165784836E0
2.623307261E1,-1.693470001E1,6.235905647E0,-3.049787760E0
2.625189912E1,-1.269215965E1,5.685097694E0,-4.527920246E0
2.627071251E1,-6.079227448E0,4.654254913E0,-5.888353348E0
2.628955214E1,-1.509779453E0,5.855281830E0,-5.465942860E0
2.630837865E1,-1.279798508E0,7.763835907E0,-4.567900658E0
2.632720516E1,-2.653751373E0,6.182085991E0,-3.967296839E0
2.634603167E1,-3.683880806E0,4.690319538E0,2.084571123E-1
2.636485818E1,-3.392559052E0,2.023933411E0,2.737306118E0
2.638367157E1,-3.832974434E-1,-8.124351501E-1,-1.128733158E-2
2.640251120E1,4.628910065E0,-2.465609550E0,-1.819088221E0
2.642133771E1,8.182492256E0,-2.564556122E0,-2.338864803E0
2.644015110E1,8.011872292E0,-7.590827942E-1,-3.014978886E0
2.645899073E1,6.863551140E0,2.490401268E0,-3.867630243E0
2.647781724E1,6.471281528E0,5.300776005E0,-3.721826315E0
2.649664376E1,6.261111259E0,6.293754578E0,-2.298764706E0
2.651547027E1,5.682469368E0,6.614314556E0,-1.266886115E0
2.653429678E1,4.261256218E0,7.601990223E0,-7.378925085E-1
2.655312329E1,3.238423347E0,8.953703880E0,2.290414572E-1
2.657194980E1,2.892656803E0,9.204459190E0,2.129348755E0
2.659077631E1,2.681451321E0,7.808225632E0,4.150933266E0
2.660958969E1,3.066177845E0,5.792169094E0,4.361342430E0
2.662842933E1,3.255656719E0,5.032526016E0,3.562260628E0
2.664725584E1,2.175591946E0,5.265517712E0,3.298584700E0
2.666608235E1,8.299427032E-1,4.521674156E0,2.809211254E0
2.668490886E1,7.432298660E-1,2.849246025E0,2.144889593E0
2.670373537E1,1.477522850E0,1.191726208E0,1.414385676E0
2.672254876E1,2.811048508E0,-1.251039147E0,3.200685978E-1
2.674138834E1,4.730902672E0,-3.472591400E0,-1.124954343E0
2.676021490E1,6.210050106E0,-3.543391705E0,-1.911920309E0
2.677904136E1,6.471257210E0,-2.141574144E0,-1.601367116E0
2.679786792E1,6.992319107E0,-2.138355017E0,-7.248140574E-1
2.681669443E1,8.351792336E0,-2.154365063E0,-1.494556665E-1
2.683552094E1,9.538851738E0,-2.038456917E0,3.425740004E-1
2.685434745E1,9.930308342E0,-3.506340981E-1,5.770076513E-1
2.687317396E1,8.640241623E0,5.716808319E0,8.954104185E-1
2.689198735E1,5.663625717E0,1.129257011E1,2.059202671E0
2.691082698E1,3.195889950E0,9.519210815E0,2.965962410E0
2.692965350E1,1.121355057E0,6.494157791E0,3.958652496E0
2.694846688E1,-4.961328506E-1,7.617806911E0,4.981178761E0
2.696730652E1,-4.466436386E0,1.016622543E1,5.811396599E0
2.698613303E1,-6.681803703E0,1.060717583E1,5.128416061E0
2.700495954E1,-7.629617691E0,1.134095764E1,4.858298779E0
2.702378605E1,-8.250453949E0,1.078437042E1,3.588324308E0
2.704261256E1,-7.988803387E0,7.405573368E0,2.232568502E0
2.706142600E1,-6.686438084E0,3.329495907E0,5.511867404E-1
2.708026558E1,-5.818538189E0,4.078345299E-1,-7.410213947E-1
2.709909209E1,-4.595522881E0,-2.314058781E0,-1.594012380E0
2.711790553E1,-2.735959530E0,-4.724022865E0,-2.185583830E0
2.713674516E1,-1.056213379E0,-5.637534142E0,-2.904251099E0
2.715557167E1,-1.059096336E0,-4.125664711E0,-3.028352499E0
2.717439818E1,-1.489252090E0,-3.273251057E0,-3.277869940E0
2.719322469E1,-2.234215260E0,-1.823981762E0,-3.349702597E0
2.721205120E1,-2.858819008E0,-9.300365448E-1,-3.717767239E0
2.723087771E1,-1.928069592E0,-1.946979046E0,-4.316976070E0
2.724970422E1,-1.333636284E0,-1.722721577E0,-3.503326654E0
2.726853073E1,-1.798936844E0,-1.224168301E0,-2.498654366E0
2.728735725E1,-1.879078388E0,-1.085297585E0,-2.258225441E0
2.730618376E1,-5.288591385E-1,-2.255992889E-1,-1.534513831E0
2.732501027E1,4.906759262E-1,5.536594391E-1,8.001047373E-2
2.734383678E1,8.657069206E-1,9.914264679E-1,1.179191351E0
2.736266329E1,7.644066811E-1,1.420299530E0,2.012213707E0
2.738148985E1,7.142939568E-1,2.225164413E0,2.400370836E0
2.740031636E1,-1.152014732E-1,2.697511673E0,2.244996786E0
2.741914287E1,-1.017693043E0,2.106457710E0,1.919101954E0
2.743796938E1,-1.538330078E0,7.310657501E-1,1.810129881E0
2.745678277E1,-1.909269571E0,-1.120052338E0,1.515347004E0
2.747562240E1,-1.996324062E0,-3.046345234E0,1.121351480E0
2.749444891E1,-1.630129099E0,-4.651550770E0,7.593637705E-1
2.751327542E1,-5.354440212E-1,-5.621686459E0,5.143693686E-1
2.753210193E1,8.022882938E-1,-5.488384724E0,-2.591371536E-3
2.755092844E1,1.650484800E0,-4.525874138E0,-3.768125772E-1
2.756974188E1,1.963923812E0,-2.831892014E0,-3.650332689E-1
2.758858152E1,2.160743713E0,-1.092630386E0,-3.921082020E-1
2.760740803E1,2.684262514E0,1.229572296E-2,-3.347859383E-1
2.762623454E1,3.018202543E0,2.012300491E-1,-2.716760635E-1
2.764506105E1,2.520923615E0,1.385604858E0,-1.297171116E-1
2.766388756E1,2.599217653E0,4.591521263E0,7.314848900E-2
2.768270094E1,2.950920820E0,8.787066460E0,3.821623325E-1
2.770154058E1,2.058465481E0,1.030838776E1,2.119114399E-1
2.772036709E1,-5.251553059E-1,8.470694542E0,-5.893578529E-1
2.773918047E1,-3.283356428E0,4.412580490E0,-1.875581026E0
2.775802011E1,-4.930882454E0,-8.095026016E-1,-3.541530371E0
2.777684662E1,-4.575728416E0,-5.214615822E0,-4.145146847E0
2.779567318E1,-3.381383657E0,-5.947229385E0,-3.572657585E0
2.781449969E1,-2.276573896E0,-4.209880829E0,-2.318011999E0
2.783332620E1,-2.071816206E0,-1.874813080E0,-1.170395732E0
2.785215271E1,-2.299635649E0,-1.243095398E-1,-1.252519965E0
2.787097922E1,-3.397977591E0,-1.122455597E-1,-1.486681938E0
2.788980573E1,-4.954112530E0,-1.706848145E-1,-1.834693551E0
2.790863225E1,-6.018759727E0,5.944519043E-1,-1.616578341E0
2.792745876E1,-5.251408577E0,1.703943253E0,-6.781646013E-1
2.794628527E1,-3.436164856E0,1.972094536E0,5.069055557E-1
2.796509865E1,-1.807727218E0,1.292379379E0,1.287935019E0
2.798393829E1,-6.526048183E-1,1.565742493E-1,1.318971872E0
2.800276480E1,-4.807865620E-2,-6.848640442E-1,5.848064423E-1
2.802159131E1,3.579065800E-1,-1.338922501E0,-3.460333347E-1
2.804041787E1,7.887260914E-1,-2.849733353E0,-1.326865911E0
2.805924438E1,1.475156069E0,-5.629919052E0,-1.804967403E0
2.807805777E1,2.556474209E0,-7.963175297E0,-1.989658475E0
2.809689740E1,3.942388535E0,-8.769203186E0,-1.992530227E0
2.811572391E1,4.927894592E0,-8.322759628E0,-1.949938536E0
2.813453730E1,5.359375000E0,-6.641643524E0,-2.056471348E0
2.815337693E1,5.165684700E0,-3.499454021E0,-1.831045032E0
2.817220344E1,4.121923923E0,6.096963882E-1,-1.497401834E0
2.819101683E1,1.990327835E0,4.132482529E0,-1.206798315E0
2.820985646E1,-1.816040516E0,5.898674965E0,-9.475537539E-1
2.822868297E1,-6.634168625E0,6.514623642E0,-4.697895050E-1
2.824749636E1,-1.089663887E1,6.801146507E0,2.803051472E-1
2.826633600E1,-1.307018757E1,7.864004135E0,1.362108231E0
2.828516251E1,-1.148142910E1,1.041434097E1,3.114816427E0
2.830397594E1,-8.351291656E0,1.156699562E1,3.931885004E0
2.832281558E1,-7.020111084E0,1.098919773E1,3.343199253E0
2.834164209E1,-7.072308540E0,9.692139626E0,1.357292175E0
2.836045547E1,-6.851202488E0,8.852253914E0,-6.769230366E-1
2.837929511E1,-5.542996407E0,6.524526596E0,-1.815985203E0
2.839812167E1,-3.815777063E0,3.632548332E0,-2.312568903E0
2.841693506E1,-1.692072630E0,1.214623451E0,-2.689047813E0
2.843577469E1,9.762859344E-2,-6.297149658E-1,-3.068388700E0
2.845460120E1,1.351154566E0,-2.486735821E0,-3.318843842E0
2.847341459E1,2.292528868E0,-4.349995613E0,-3.491659880E0
2.849225422E1,3.187447786E0,-5.051285267E0,-3.689419031E0
2.851108073E1,4.310654640E0,-4.906239033E0,-3.574853897E0
2.852990730E1,5.746205330E0,-3.831470013E0,-3.182817698E0
2.854873381E1,6.956741333E0,-2.174662113E0,-2.468365192E0
2.856756032E1,7.392335892E0,-1.515240669E-1,-1.682619095E0
2.858637370E1,7.462235928E0,1.755807400E0,-1.318340302E-1
2.860521334E1,7.243099689E0,3.389438629E0,1.538547873E0
2.862403985E1,5.865547180E0,4.538306713E0,2.975937128E0
2.864285329E1,4.017981052E0,3.842671871E0,3.970242739E0
2.866169287E1,2.389556408E0,2.626114368E0,3.926139832E0
2.868051938E1,8.994293213E-2,3.577776909E0,3.815404892E0
2.869933282E1,-1.557432175E0,4.850398540E0,3.664973497E0
2.871817245E1,-2.270983696E0,5.478358269E0,3.421556473E0
2.873699896E1,-2.057775497E0,5.363921642E0,3.378732920E0
2.875581235E1,-1.160899162E0,3.923924446E0,3.472936153E0
2.877465198E1,4.683399200E-2,1.508712292E0,3.665531635E0
2.879347850E1,1.784163475E0,-1.397408247E0,2.975973845E0
2.881229188E1,3.011743069E0,-3.312686920E0,1.231069684E0
2.883113152E1,3.482745171E0,-4.160509586E0,-4.470361471E-1
2.884995803E1,4.507592201E0,-4.799319267E0,-1.432881117E0
2.886877146E1,5.983938217E0,-5.411051273E0,-1.728641033E0
2.888761110E1,8.118205070E0,-5.497535706E0,-1.626303196E0
2.890643761E1,9.313617706E0,-5.270646572E0,-1.525572419E0
2.892526412E1,9.504669189E0,-4.697642326E0,-2.172069788E0
2.894409063E1,8.040319443E0,-2.351120949E0,-2.112448454E0
2.896291714E1,5.515373230E0,2.446982861E0,-1.357297182E0
2.898173058E1,3.766206741E0,6.701695919E0,9.631957412E-1
2.900057016E1,2.521544456E0,7.638228416E0,3.475798845E0
2.901939672E1,6.493129730E-1,7.005308628E0,5.369719982E0
2.903821011E1,-1.761330605E0,8.526053429E0,7.128642559E0
2.905704974E1,-4.499893665E0,1.216492462E1,8.162031174E0
2.907587626E1,-6.474178314E0,1.233413315E1,6.887955666E0
2.909468964E1,-7.277357101E0,1.042151546E1,3.790224075E0
2.911352928E1,-6.980103016E0,8.007221222E0,1.431686759E0
2.913235584E1,-5.214112282E0,5.839272976E0,5.862783194E-1
2.915116922E1,-3.231701374E0,2.668835640E0,5.556551218E-1
2.917000886E1,-2.159105778E0,-1.458043575E0,5.152162313E-1
2.918883537E1,-2.352644444E0,-4.971004963E0,6.878298521E-2
2.920764876E1,-3.393596649E0,-7.241772175E0,-2.299875021E-2
2.922648839E1,-4.201481342E0,-7.669073105E0,-3.355903029E-1
2.924531495E1,-4.344527245E0,-7.161277771E0,-8.716868162E-1
2.926412834E1,-3.982139111E0,-4.475621700E0,-7.004909515E-1
2.928296797E1,-3.070189476E0,-7.268209457E-1,-6.424982548E-1
2.930179448E1,-2.466191292E0,1.488936424E0,-8.280212879E-1
2.932062100E1,-2.156835079E0,8.496465683E-1,-1.838938713E0
2.933944751E1,-2.291338205E0,7.433490753E-1,-2.240483761E0
2.935827407E1,-1.775803328E0,1.329324722E0,-1.242069721E0
2.937710058E1,-5.297927856E-1,1.531133652E0,-9.346060753E-1
2.939592709E1,3.909361362E-1,1.813277245E0,-4.477524757E-2
2.941475360E1,1.559503198E0,2.187878609E0,9.773340225E-1
2.943358011E1,1.463538647E0,2.338385582E0,1.422566891E0
2.945240662E1,2.501029968E-1,1.928198814E0,1.189862490E0
2.947123318E1,-2.509658337E-1,1.158194542E0,8.055198193E-1
2.949005969E1,-2.536330223E-1,5.546026230E-1,2.450797558E-1
2.950888620E1,-3.601336479E-2,-1.041764259E0,-5.549392700E-1
2.952771271E1,8.826401234E-1,-3.287282944E0,-1.334719896E0
2.954652615E1,2.034849405E0,-4.948858261E0,-1.751815081E0
2.956536573E1,2.653322458E0,-5.869462013E0,-1.977599382E0
2.958419230E1,2.446837425E0,-5.572263718E0,-2.415859938E0
2.960301881E1,2.090234995E0,-4.641586304E0,-2.572360516E0
2.962184532E1,1.026969194E0,-4.019674778E0,-2.908721685E0
2.964067183E1,-3.370387554E-1,-3.485416412E0,-3.221846104E0
2.965949834E1,-1.188797235E0,-2.465936661E0,-3.083741188E0
2.967832485E1,-1.516022563E0,-1.988984108E0,-2.720662355E0
2.969715136E1,-1.372263432E0,-9.797096252E-1,-2.588578463E0
2.971596480E1,-1.408794761E0,1.660361290E0,-1.955630064E0
2.973480443E1,-1.152077675E0,4.423751831E0,-1.105587602E0
2.975363094E1,-1.421646595E0,7.394427299E0,-8.720517159E-2
2.977244433E1,-2.774509430E0,9.694139481E0,-4.729299545E-1
2.979128396E1,-5.670223236E0,9.542407036E0,-1.338538647E0
2.981011047E1,-8.074166298E0,7.790586472E0,-1.883898616E0
2.982892391E1,-8.526910782E0,5.057971954E0,-2.329029322E0
2.984776355E1,-8.221032143E0,4.088516235E-1,-1.650274277E0
2.986659006E1,-7.318758965E0,-4.763902664E0,-8.351845741E-1
2.988540344E1,-5.668562889E0,-7.692420483E0,-1.761102676E-1
2.990424308E1,-2.973334312E0,-7.185126305E0,3.413610458E-1
2.992306959E1,-1.127681017E0,-4.772716045E0,6.959115267E-1
2.994188303E1,-1.192232609E0,-1.981860161E0,8.998632431E-2
2.996072266E1,-2.413820267E0,2.844429016E-1,-2.643533051E-1
2.997954917E1,-3.383612156E0,2.071294785E-1,-6.732202172E-1
2.999837568E1,-3.860793114E0,6.975650787E-2,-1.167313933E0
3.001720219E1,-3.651123047E0,1.748979092E0,-1.797343016E0
3.003602870E1,-2.829266071E0,4.301876068E0,-1.623616457E0
3.005485521E1,-1.992048264E0,5.611909866E0,-1.008533120E0
3.007368172E1,-1.429461479E0,4.141920090E0,-2.486907244E-1
3.009250823E1,-1.243436813E0,2.244895935E0,1.046278477E-1
3.011132167E1,-6.006560326E-1,8.122301102E-2,-1.499602318E0
3.013016131E1,1.100625992E0,-7.570528984E-1,-1.931840539E0
3.014898782E1,2.604379177E0,-5.618619919E-1,-1.341454506E0
3.016781433E1,3.500307560E0,-5.596065521E-1,-8.586652279E-1
3.018664084E1,4.009771347E0,1.690020561E-1,-4.920785427E-1
3.020546735E1,4.830674171E0,1.027611732E0,-7.836389542E-2
3.022429391E1,5.435504436E0,1.939987183E0,-4.762496948E-1
3.024312042E1,4.944225788E0,2.803085804E0,-1.035892010E0
3.026194693E1,3.725828171E0,2.589923620E0,-1.013258457E0
3.028076032E1,1.600629807E0,2.039782286E0,-9.339509010E-1
3.029959995E1,-1.632071495E0,1.372514009E0,-7.908608913E-1
3.031842646E1,-4.462117195E0,6.406717300E-1,-1.444504738E0
3.033723990E1,-6.437989235E0,5.590493083E-1,-2.441371441E0
3.035607954E1,-8.765210152E0,1.386843920E-1,-3.900066853E0
3.037490605E1,-1.127105045E1,-5.597161055E-1,-5.444462299E0
3.039371943E1,-1.141060829E1,-1.560487270E0,-6.772680759E0
3.041255907E1,-9.469419479E0,-1.445332766E0,-7.629672050E0
3.043138558E1,-6.552529335E0,-8.917686939E-1,-6.831959248E0
3.045019902E1,-3.780318737E0,-8.842620850E-1,-5.553073883E0
3.046903860E1,-1.785070896E0,-1.048371315E0,-4.890776634E0
3.048786516E1,-2.655191422E-1,-3.742170334E-2,-5.263811111E0
3.050667855E1,1.139935493E0,2.319395781E0,-5.550015450E0
3.052551818E1,2.328523636E0,4.104178429E0,-5.080277443E0
3.054434469E1,3.446430206E0,5.136595249E0,-4.335652351E0
3.056315813E1,4.763719559E0,6.776396751E0,-3.919315815E0
3.058199777E1,5.607180119E0,9.450385094E0,-3.717346191E0
3.060082428E1,5.908864498E0,1.288300991E1,-2.810456753E0
3.061963766E1,5.607631207E0,1.558902931E1,-8.647648096E-1
3.063847730E1,5.558152676E0,1.487206078E1,5.879477859E-1
3.065730381E1,6.352634430E0,1.217171001E1,1.950688124E0
3.067611724E1,6.752148151E0,9.484185219E0,4.328328609E0
3.069495683E1,5.798985958E0,7.457245350E0,6.396186829E0
3.071378339E1,2.936725140E0,4.897397041E0,6.428827286E0
3.073259678E1,-7.124252319E-1,2.779167891E0,4.120306015E0
3.075143641E1,-4.125229359E0,2.726198435E0,1.231101274E0
3.077026292E1,-6.558770180E0,2.943254232E0,6.808524132E-1
3.078907631E1,-4.276039124E0,1.162497520E0,1.337792635E0
3.080791594E1,-2.455520630E-1,-3.179740906E-1,3.547593355E0
3.082674251E1,1.487726212E0,-2.219481468E-1,5.551349640E0
3.084555589E1,2.092960358E0,1.602114916E0,4.310393333E0
3.086439553E1,3.252818108E0,4.021329403E0,1.530278921E0
3.088322204E1,3.987759590E0,6.445318699E0,6.540183425E-1
3.090204855E1,4.315952301E0,7.788743496E0,6.285138726E-1
3.092087511E1,5.164192677E0,6.265436172E0,2.840692699E-1
3.093970162E1,6.158136368E0,4.545720100E0,-1.879844666E-1
3.095852813E1,6.928333282E0,4.075969219E0,6.188192964E-2
3.097735464E1,7.567946911E0,3.829061508E0,6.964588165E-1
3.099618115E1,8.721410751E0,3.020537376E0,1.022193074E0
3.101500771E1,9.367027283E0,2.000550508E0,1.560878515E0
3.103383422E1,9.149413109E0,1.893073678E0,1.443531513E0
3.105266073E1,7.351797581E0,3.937345982E0,7.758958340E-1
3.107147417E1,4.045456409E0,8.377180099E0,7.645411491E-1
3.109031381E1,-8.503580093E-1,1.119910622E1,1.115656257E0
3.110914032E1,-6.386293411E0,1.109790325E1,5.549491048E-1
3.112795370E1,-1.067142487E1,1.073829651E1,-9.662635326E-1
3.114679334E1,-1.016933346E1,1.110973644E1,-3.455212355E0
3.116561990E1,-7.022819519E0,1.171851254E1,-2.601468563E0
3.118443329E1,-1.957382202E0,1.379815102E1,-1.406751394E0
3.120327292E1,2.204275131E-2,1.726513481E1,-9.481136799E-1
3.122209948E1,-1.886579514E0,1.506565285E1,-2.534850836E0
3.124091287E1,-3.351035118E0,9.847973824E0,-4.927213192E0
3.125975250E1,-3.058112621E0,6.118474007E0,-5.819336414E0
3.127857907E1,-2.992274046E0,2.591927528E0,-7.188047409E0
3.129739245E1,-4.201405525E0,-4.257812500E-1,-8.280169487E0
3.131623209E1,-5.118779182E0,-3.014086723E0,-8.531309128E0
3.133505865E1,-5.102750778E0,-5.139522552E0,-8.340248108E0
3.135388516E1,-5.085667610E0,-5.433228970E0,-7.679905415E0
3.137271167E1,-5.306292057E0,-3.643575191E0,-5.922663689E0
3.139153818E1,-5.028097630E0,-1.103597641E0,-4.492873669E0
3.141035162E1,-5.806417942E0,1.842910767E0,-3.701665401E0
3.142919126E1,-6.381887436E0,3.703193665E0,-3.123576641E0
3.144801777E1,-7.258557320E0,3.613114357E0,-3.416863680E0
3.146684433E1,-8.185901642E0,2.749346733E0,-3.279540539E0
3.148567084E1,-6.684648514E0,1.846446037E0,-2.707797766E0
3.150449735E1,-4.602040291E0,1.497262001E0,-2.567192078E0
3.152331079E1,-2.617205143E0,1.036223412E0,-2.173243999E0
3.154215042E1,-6.968083382E-1,9.307861328E-4,-1.896139979E0
3.156097693E1,8.969721794E-1,-4.164505005E-1,-1.459770203E0
3.157980344E1,2.016077280E0,-3.935475349E-1,-7.542109489E-1
3.159862995E1,2.651102543E0,-5.661497116E-1,-9.058856964E-1
3.161745652E1,2.309575081E0,-5.009846687E-1,-1.533674240E0
3.163628303E1,1.678115368E0,-1.112711906E0,-2.427874804E0
3.165510954E1,1.800520658E0,-2.554540634E0,-3.081732512E0
3.167393605E1,2.311092377E0,-4.358628273E0,-2.947427034E0
3.169274948E1,2.692121029E0,-5.968715668E0,-2.396203995E0
3.171158912E1,2.701006889E0,-6.510105610E0,-2.335613728E0
3.173041563E1,2.970682383E0,-6.351048946E0,-2.428011417E0
3.174924214E1,3.366860390E0,-5.615640163E0,-2.438220739E0
3.176806870E1,3.279970646E0,-4.232176781E0,-2.397126913E0
3.178689521E1,2.195467234E0,-2.315770149E0,-2.319109201E0
3.180570860E1,-9.675836563E-2,3.617343903E-1,-1.811057329E0
3.182454823E1,-2.756820679E0,3.452370644E0,-1.766480207E0
3.184337480E1,-4.312687874E0,4.951374054E0,-1.461047411E0
3.186220131E1,-4.248680592E0,5.582749367E0,1.293721199E-1
3.188102782E1,-3.426636219E0,6.349391937E0,9.010462761E-1
3.189985433E1,-2.081328869E0,7.841907501E0,1.349231005E0
3.191868089E1,-1.666365623E0,8.378718376E0,9.060235023E-1
3.193750740E1,-3.043016911E0,6.309924126E0,-4.269216657E-1
3.195633391E1,-4.442630768E0,1.226052284E0,-1.550459146E0
3.197514735E1,-5.286863804E0,-4.516622543E0,-1.534077883E0
3.199398698E1,-5.449392319E0,-7.659386635E0,-8.237391114E-1
3.201281350E1,-4.396353722E0,-7.787003994E0,-4.195183814E-1
3.203162688E1,-2.671219349E0,-6.485261917E0,-6.699661016E-1
3.205046652E1,-1.392420769E0,-4.097348690E0,-1.591034174E0
3.206929308E1,-5.656476021E-1,-8.823423386E-1,-2.578535080E0
3.208811959E1,5.047388077E-1,9.487104416E-1,-2.914185524E0
3.210694610E1,1.964026213E0,1.370797157E0,-1.429356456E0
3.212577261E1,2.937685966E0,2.002359390E0,5.829366446E-1
3.214459917E1,3.191010952E0,3.184499741E0,1.496843815E0
3.216342568E1,2.454854965E0,2.787915230E0,1.500276923E0
3.218225219E1,7.125377655E-2,1.867600441E0,1.231623411E0
3.220107870E1,-1.902347088E0,7.054224014E-1,9.689190388E-1
3.221990527E1,-2.369540215E0,1.128234863E-1,5.196420550E-1
3.223873178E1,-2.089403391E0,-5.966348648E-1,5.507701635E-1
3.225754521E1,-1.815766096E0,-2.036783218E0,8.778155446E-1
3.227638485E1,-1.474214315E0,-3.749853134E0,1.070956588E0
3.229521136E1,-8.005456924E-1,-5.381457329E0,1.010111809E0
3.231403787E1,2.627902031E-1,-6.583292961E0,9.202986956E-1
3.233286438E1,1.555681705E0,-7.104130745E0,1.192959785E0
3.235169094E1,2.770174265E0,-7.466251373E0,1.538529158E0
3.237051745E1,3.624634743E0,-7.282305717E0,1.731882930E0
3.238934396E1,3.716671228E0,-5.370975018E0,1.730799198E0
3.240817053E1,1.988117814E0,-6.542205811E-2,5.301594734E-1
3.242698391E1,-1.277127504E0,6.246062279E0,-1.387394667E0
3.244582355E1,-4.693591118E0,9.945800781E0,-2.431743622E0
3.246465006E1,-8.446188927E0,1.132069683E1,-2.937548161E0
3.248346350E1,-1.144882298E1,9.742245674E0,-3.731896162E0
3.250230313E1,-1.225702286E1,8.328728676E0,-4.741603374E0
3.252112964E1,-9.728276253E0,8.010504723E0,-3.517863989E0
3.253994308E1,-6.530308247E0,9.083032608E0,-1.221431494E0
3.255878271E1,-4.384902000E0,1.014496231E1,-1.004602671E0
3.257760922E1,-3.371307850E0,9.742774010E0,-1.257151842E0
3.259642266E1,-2.689317703E0,7.639298439E0,-1.299863815E0
3.261526230E1,-2.260319710E0,3.907162666E0,-2.002125502E0
3.263408881E1,-1.284534216E0,-5.638599396E-2,-2.533732891E0
3.265290224E1,8.385245800E-1,-2.997530460E0,-2.518484592E0
3.267174188E1,3.019641876E0,-5.007099152E0,-2.627365589E0
3.269056839E1,4.331667900E0,-6.000398636E0,-3.008721828E0
3.270939490E1,4.949660778E0,-5.864862442E0,-2.815457106E0
3.272822146E1,4.896500587E0,-5.665201187E0,-3.113752365E0
3.274704797E1,4.762979031E0,-5.771945000E0,-3.874982357E0
3.276587448E1,5.008361816E0,-5.861061096E0,-4.335918903E0
3.278470105E1,5.355523109E0,-5.327804565E0,-4.111932755E0
3.280352756E1,5.445752621E0,-4.367814064E0,-3.413205862E0
3.282234094E1,4.828653336E0,-2.819197655E0,-2.870305538E0
3.284118063E1,4.670999050E0,-2.835092545E-1,-2.117486000E0
3.286000714E1,5.983825684E0,1.739323616E0,-4.298133850E-1
3.287882053E1,7.086030483E0,3.148114204E0,1.699837446E0
3.289766016E1,6.621059418E0,4.377827644E0,3.051982403E0
3.291648672E1,5.049258232E0,5.575752258E0,3.525790930E0
3.293530011E1,3.123610258E0,5.861672401E0,3.095336199E0
3.295413974E1,8.124694824E-1,4.842380524E0,2.309633970E0
3.297296631E1,-1.347347498E0,3.120902061E0,1.883661389E0
3.299177969E1,-1.945838213E0,6.069746017E-1,1.930253863E0
3.301061938E1,-1.505650520E0,-2.474036694E0,1.883210421E0
3.302944589E1,-1.554014683E0,-4.826960087E0,1.568776846E0
3.304825928E1,-1.692661047E0,-6.462379932E0,4.682952166E-1
3.306709891E1,-4.505698681E-1,-7.595339775E0,-1.192604542E0
3.308592547E1,1.203172684E0,-8.678097725E0,-2.329554558E0
3.310475198E1,2.239588022E0,-9.420018196E0,-3.283305645E0
3.312357850E1,3.818854094E0,-9.286992073E0,-4.422671795E0
3.314240506E1,5.300845146E0,-7.032370567E0,-5.179765701E0
3.316121844E1,5.774136543E0,-1.760933876E0,-5.089892387E0
3.318005808E1,6.223580360E0,4.483786583E0,-4.326838493E0
3.319888464E1,6.441918373E0,8.106538773E0,-1.427481055E0
3.321769803E1,6.145729065E0,7.505819321E0,3.686259270E0
3.323653771E1,3.629069328E0,8.168885231E0,4.792891979E0
3.325536422E1,-2.202838421E0,1.345693874E1,3.422744513E0
3.327417766E1,-5.858179569E0,1.375854874E1,2.910478115E0
3.329301730E1,-3.842421055E0,9.821016312E0,3.648030043E0
3.331184381E1,-8.989439011E-1,7.140253067E0,3.680842400E0
3.333065725E1,4.589991570E-1,4.806788445E0,2.818379879E0
3.334949688E1,4.346396923E-1,2.361083984E0,1.795711875E0
3.336832339E1,-2.441864014E-1,-1.962423325E-1,8.936157227E-1
3.338713683E1,-9.516971111E-1,-3.025900364E0,-3.734760731E-2
3.340597646E1,-1.431452751E0,-5.370287895E0,-7.945935726E-1
3.342480297E1,-1.382389545E0,-6.369876862E0,-1.054179192E0
3.344362954E1,-8.605589867E-1,-6.076315880E0,-1.508134842E0
3.346245605E1,-1.120059013E0,-3.766004562E0,-1.832483292E0
3.348128256E1,-2.165279865E0,-3.169441223E-1,-2.133632660E0
3.350009600E1,-3.017995358E0,3.411416054E0,-2.106745720E0
3.351893563E1,-3.376926899E0,4.509687424E0,-1.571229935E0
3.353776214E1,-3.501724720E0,2.902411461E0,-5.113810897E-1
3.355657558E1,-4.421985149E0,1.658555031E0,-8.204752207E-1
3.357541521E1,-6.300591469E0,2.042877197E0,-1.844147682E0
3.359424172E1,-6.272973061E0,1.940800667E0,-2.646932125E0
3.361305516E1,-4.342509270E0,1.252746582E0,-2.538186073E0
3.363189480E1,-2.236248493E0,4.503202438E-1,-9.379242659E-1
3.365072131E1,-3.989443779E-1,1.951789856E-2,2.857742310E-1
3.366954787E1,-3.597707748E-1,9.875774384E-2,5.000951290E-1
3.368837438E1,-8.578748703E-1,-9.336471558E-2,1.917483807E-1
3.370720089E1,-5.595202446E-1,-1.747839451E0,-3.750171661E-1
3.372601433E1,3.153586388E-1,-3.724901676E0,-1.702605724E0
3.374485396E1,1.024280071E0,-4.457494736E0,-3.247467518E0
3.376368047E1,1.859451532E0,-5.406013489E0,-4.377985477E0
3.378249391E1,3.327225447E0,-5.758746147E0,-5.479150772E0
3.380133355E1,4.800139904E0,-4.459493160E0,-5.701016426E0
3.382016011E1,5.779545784E0,-2.648452282E0,-5.168902397E0
3.383898662E1,5.406921387E0,-1.329885483E0,-3.868549347E0
3.385781313E1,4.070302010E0,-4.631524086E-1,-2.948566198E0
3.387663969E1,1.730080009E0,3.433518410E-1,-2.293501616E0
3.389545308E1,-1.257390261E0,5.538601875E-1,-1.813074112E0
3.391429271E1,-3.036871910E0,1.083573341E0,-1.012604237E0
3.393311928E1,-3.633839130E0,2.545916080E0,3.460907936E-1
3.395193271E1,-3.807149410E0,4.950811863E0,1.208783627E0
3.397077235E1,-4.184570312E0,7.434857845E0,2.033205032E0
3.398959886E1,-5.183011055E0,6.816386223E0,3.114577055E0
3.400841230E1,-6.699488163E0,2.903394699E0,2.818753481E0
3.402725193E1,-7.531088829E0,-1.709589958E0,1.156211615E0
3.404607844E1,-7.207585335E0,-4.907772541E0,-4.529309273E-1
3.406490500E1,-6.059946537E0,-5.745441914E0,-1.224538922E0
3.408373152E1,-4.672108650E0,-5.011893749E0,-1.629431963E0
3.410255803E1,-3.118429661E0,-4.082865715E0,-2.340363741E0
3.412138459E1,-1.870007038E0,-2.582952976E0,-2.763478994E0
3.414021110E1,-7.946367264E-1,-6.504325867E-1,-2.665598392E0
3.415903761E1,-1.970291138E-1,1.502960205E0,-2.559651375E0
3.417786417E1,-8.293676376E-2,2.555054665E0,-1.914998531E0
3.419669068E1,-9.357638359E-1,3.282967567E0,-1.144123077E0
3.421551724E1,-1.986583233E0,4.148343086E0,-8.278725147E-1
3.423433063E1,-3.372955322E0,4.771031857E0,-1.128607988E-2
3.425317032E1,-4.506538391E0,4.072847366E0,4.771389961E-1
3.427199683E1,-6.144460678E0,3.638107300E0,6.995323300E-1
3.429082334E1,-7.162344933E0,3.133106232E0,1.026777506E0
3.430964990E1,-6.475593567E0,1.829434395E0,9.850411415E-1
3.432847641E1,-3.926982880E0,1.802043915E0,7.073656321E-1
3.434728985E1,-7.954483032E-1,3.041773796E0,8.132026196E-1
3.436612948E1,1.886134148E0,4.407170296E0,1.213416815E0
3.438495600E1,4.439366341E0,5.689391136E0,1.405526400E0
3.440376943E1,6.547051907E0,6.861134052E0,1.958267331E0
3.442260907E1,7.633597374E0,7.240523815E0,2.662373304E0
3.444143558E1,6.423692703E0,6.773546696E0,2.595913410E0
3.446024902E1,4.419458866E0,7.047915459E0,-4.289342463E-1
3.447908865E1,4.015778542E0,6.320249557E0,-5.109460354E-1
3.449791521E1,3.532444477E0,3.571540594E0,1.364790082E0
3.451672860E1,2.410458088E0,-1.638822556E-1,1.603404760E0
3.453556823E1,1.702829361E0,-3.679413319E0,1.362771511E0
3.455439480E1,2.188158989E0,-5.083067894E0,3.165933609E0
3.457320818E1,4.923943520E0,-5.849456310E0,5.704337597E0
3.459204782E1,6.693782806E0,-4.492390156E0,8.054892540E0
3.461087438E1,7.058135033E0,-3.183679581E-1,9.924255371E0
3.462968777E1,9.187288284E0,5.591988564E-1,1.184475136E1
3.464852745E1,1.301440620E1,1.308485985E0,1.175360870E1
3.466735396E1,1.252558708E1,5.809066772E0,1.091441250E1
3.468616740E1,6.998865128E0,1.117286873E1,5.202305317E0
3.470500704E1,1.214723110E0,1.348484516E1,1.472997665E-1
3.472383355E1,-3.574911594E0,1.388202572E1,-6.373840332E0
3.474264698E1,-6.625710964E0,6.793849468E0,-8.861835480E0
3.476148662E1,-5.119369030E0,1.156887650E0,-6.740087509E0
3.478031313E1,-2.618890285E0,-6.045297980E-1,-5.850210667E0
3.479912657E1,-1.530294418E0,1.389933705E0,-4.979090214E0
3.481796620E1,-7.317047119E-1,2.682925701E0,-4.189217091E0
3.483679277E1,7.268633842E-1,1.868493795E0,-3.720492840E0
3.485560615E1,1.921082973E0,1.031779170E0,-2.974007607E0
3.487444579E1,2.485280037E0,1.244584322E0,-1.959903002E0
3.489327235E1,1.811195374E0,2.116790056E0,-1.948557377E0
3.491208579E1,6.513175964E-1,3.930701494E0,-2.502887964E0
3.493092542E1,-8.165054321E-1,4.412152290E0,-2.623394728E0
3.494975193E1,-1.887227058E0,3.196620464E0,-1.328831434E0
3.496856537E1,-2.561283112E0,3.040632725E0,1.717116833E-1
3.498740500E1,-4.221719742E0,5.280342102E0,5.796686411E-1
3.500623152E1,-6.681319237E0,4.868134022E0,-1.111325383E0
3.502505808E1,-7.440143585E0,3.365252018E0,-2.890234470E0
3.504388459E1,-6.107817650E0,1.346549988E0,-3.229217291E0
3.506271115E1,-3.633424759E0,-2.024315596E0,-3.230843544E0
3.508152454E1,-1.426146984E0,-5.393925667E0,-3.432626009E0
3.510036422E1,5.044488907E-1,-7.724923611E0,-4.059891701E0
3.511919073E1,2.414171696E0,-8.927516937E0,-4.215507507E0
3.513800417E1,3.341135263E0,-9.266707420E0,-5.002375603E0
3.515684381E1,5.195490837E0,-1.049540806E1,-5.218880653E0
3.517567032E1,6.751654625E0,-8.660007477E0,-5.031819344E0
3.519448376E1,7.425609589E0,-9.232074738E0,-6.989131927E0
3.521332339E1,8.372420311E0,-9.157134056E0,-1.064673996E1
3.523214990E1,6.136960030E0,-4.957060814E-1,-9.915525436E0
3.525096334E1,3.952786207E0,8.293354034E0,-6.344573975E0
3.526980297E1,3.727693319E0,1.069464588E1,-1.070818782E0
3.528862954E1,2.279427528E0,8.777564049E0,1.303187013E0
3.530744292E1,-3.023662567E-1,7.504989147E0,-4.953580201E-1
3.532628261E1,-3.322422504E0,1.012575912E1,-1.719365001E0
3.534510912E1,-4.286161423E0,1.224746132E1,-2.137259960E0
3.536392256E1,-2.570436954E0,1.168230438E1,-7.854960561E-1
3.538276219E1,-8.551783562E-1,9.430493355E0,1.285906911E0
3.540158870E1,-2.701363564E-1,6.101262569E0,2.137756348E0
3.542040214E1,2.847146988E-2,3.912393570E0,1.164855719E0
3.543924178E1,-5.182976723E-1,2.507982254E0,3.843786716E-1
3.545806834E1,-1.181159019E0,9.069213867E-1,3.270678520E-1
3.547689485E1,-1.780905724E-1,-4.379658699E-1,-1.847918034E-1
3.549572136E1,1.235156059E0,1.168139458E0,2.435345650E-1
3.551454792E1,1.073941231E0,2.973511696E0,2.625882149E0
3.553337443E1,-2.173585892E-1,2.772785664E0,4.386337280E0
3.555220100E1,-1.634377003E0,8.492794037E-1,3.421743393E0
3.557102750E1,-3.820609570E0,-2.551269531E-2,1.532020092E0
3.558985402E1,-5.091921329E0,3.036799431E-1,6.973996162E-1
3.560868058E1,-3.797698975E0,4.656987190E-1,8.024363518E-1
3.562750709E1,-1.250848770E0,1.360417366E0,1.073190451E0
3.564633365E1,4.620637894E-1,3.262727737E0,1.712911129E0
3.566516016E1,8.447561264E-1,3.989332199E0,2.334195852E0
3.568398672E1,-8.622980118E-2,3.016108036E0,2.062746763E0
3.570280011E1,-1.581864357E0,1.500980854E0,1.388225079E0
3.572163980E1,-2.665041447E0,-1.033515930E-1,1.485563278E0
3.574046631E1,-2.360641003E0,-1.279515266E0,1.695343971E0
3.575927974E1,-6.948456764E-1,-1.664627314E0,2.003215075E0
3.577811938E1,1.062271118E0,-1.245708942E0,3.127642393E0
3.579694589E1,2.032696247E0,-9.608616829E-1,5.636656761E0
3.581577245E1,2.034901142E0,-6.437621117E-1,7.061803341E0
3.583459896E1,2.762519360E0,-9.431204796E-1,6.851052284E0
3.585342553E1,4.050812721E0,-8.392210007E-1,5.700874805E0
3.587225204E1,4.372740746E0,-2.154569626E-1,5.807875633E0
3.589107860E1,3.953770638E0,-1.685671806E-1,6.670202255E0
3.590990511E1,2.728138924E0,-1.474601746E0,6.268864155E0
3.592873167E1,1.703195572E0,-2.245777130E0,4.719641685E0
3.594755818E1,1.596595764E0,-1.355572701E0,3.341424465E0
3.596638474E1,1.864225864E0,5.377011299E-1,2.759390354E0
3.598519818E1,7.161259651E-1,3.390202999E0,2.694597483E0
3.600403782E1,-1.910838604E0,6.045799732E0,1.993599176E0
3.602286438E1,-4.363968372E0,7.033721447E0,-1.799933910E-1
3.604167782E1,-6.466932297E0,6.949044704E0,-3.045377970E0
3.606051745E1,-7.219476700E0,7.451811314E0,-5.176802635E0
3.607934396E1,-6.800826550E0,8.169480324E0,-6.473762989E0
3.609815740E1,-5.006704330E0,6.548578739E0,-7.761955261E0
3.611699709E1,-2.522323608E0,2.845062256E0,-7.077739716E0
3.613582360E1,-8.056917191E-1,-1.618479252E0,-6.015082836E0
3.615463704E1,-1.818294525E-1,-4.599420547E0,-4.603542805E0
3.617347667E1,1.332144022E0,-5.678235531E0,-2.892958641E0
3.619230323E1,3.417128086E0,-3.799177647E0,-1.217135191E0
3.621111667E1,3.895424366E0,-1.037088394E0,-2.927080393E-1
3.622995631E1,1.842793465E0,4.263324738E-1,-1.044185758E0
3.624878282E1,-3.688869476E-1,1.334056854E-1,-2.652954817E0
3.626760938E1,-1.405884743E0,-1.356456757E0,-4.251101971E0
3.628643589E1,-1.726248741E0,-2.862160206E0,-5.945160866E0
3.630526245E1,-2.115377903E0,-1.671895981E0,-6.899359703E0
3.632407589E1,-2.052999020E0,1.372838974E0,-7.245417595E0
3.634291553E1,-1.912174702E0,4.689717293E0,-7.379176140E0
3.636174204E1,-1.453634262E0,5.730693340E0,-7.596014500E0
3.638055547E1,-1.471654892E0,4.286010265E0,-7.624609947E0
3.639939511E1,-3.170830727E0,2.270050526E0,-5.576537132E0
3.641822167E1,-4.136660576E0,-5.875391960E-1,-6.089487076E0
3.643703511E1,-2.440977097E0,-9.955482483E-1,-6.608576775E0
3.645587474E1,-7.293128967E-1,-2.092885971E-1,-6.089757442E0
3.647470126E1,-2.362600327E0,-1.301779270E0,-5.792900562E0
3.649351469E1,-4.590270996E0,-6.047057152E0,-6.591905594E0
3.651235438E1,-5.839120865E0,-7.629128456E0,-5.894699574E0
3.653118089E1,-1.529489040E0,-8.268897057E0,-5.010737419E0
3.654999433E1,4.252872467E0,-7.919098377E0,-4.162848949E0
3.656883396E1,7.676795006E0,-4.921054840E0,-2.792164326E0
3.658766053E1,1.015830517E1,-1.603842735E0,-2.825730801E0
3.660647391E1,9.790236473E0,3.458266258E-1,-2.874143124E0
3.662531360E1,8.712863922E0,1.344606400E0,-4.470728397E0
3.664414011E1,7.505754948E0,4.116994858E0,-5.445903778E0
3.666295355E1,5.304730415E0,9.909198761E0,-5.367963314E0
3.668179318E1,2.913404942E0,1.191056824E1,-5.260692596E0
3.670061975E1,-5.469141006E-1,7.946459293E0,-4.648077011E0
3.671943313E1,-6.287537575E0,4.958786488E0,-5.576050758E0
3.673827282E1,-6.493678093E0,4.048923492E0,-5.737655163E0
3.675709933E1,-5.374551773E0,4.580758095E0,-6.808641434E0
3.677591277E1,-4.665847778E0,6.380714893E0,-7.906595707E0
3.679475240E1,-4.158478737E0,1.091076565E1,-1.076311874E1
3.681357896E1,-3.213850021E0,1.153635597E1,-1.163506794E1
3.683239240E1,-1.860280991E0,7.334344864E0,-1.033079147E1
3.685123204E1,1.190184593E0,2.049749374E0,-8.839316368E0
3.687005855E1,4.832299709E0,1.086692810E-1,-7.381220341E0
3.688887198E1,7.413289070E0,3.995429993E0,-7.143127918E0
3.690771162E1,7.893999100E0,9.069179535E0,-7.522747517E0
3.692653818E1,8.477594376E0,1.127335644E1,-8.384813309E0
3.694535162E1,8.590133667E0,1.336468983E1,-1.103203487E1
3.696419126E1,7.882517815E0,1.636848831E1,-1.262710762E1
3.698301782E1,7.336002827E0,1.783020020E1,-1.206859207E1
3.700183120E1,7.374922752E0,1.650315094E1,-8.597638130E0
3.702067089E1,7.746747494E0,1.384575462E1,-6.451266766E0
3.703949740E1,7.051100731E0,1.245324612E1,-7.104511261E0
3.705831084E1,4.744314194E0,1.236574364E1,-8.487263680E0
3.707715047E1,2.449589252E0,1.155228996E1,-8.288830757E0
3.709597704E1,2.528320789E0,1.144731236E1,-7.340292931E0
3.711479042E1,4.564735413E0,1.265494251E1,-7.478655815E0
3.713363011E1,6.372352600E0,1.341858387E1,-8.207185745E0
3.715245662E1,7.002684116E0,1.369403076E1,-8.712886810E0
3.717128318E1,7.069191933E0,1.349749660E1,-8.189410210E0
3.719010969E1,7.331254005E0,1.314805603E1,-6.524890900E0
3.720893626E1,7.362096786E0,1.207953262E1,-5.323588371E0
3.722774964E1,5.916315079E0,1.013761234E1,-5.156946182E0
3.724658933E1,2.878009796E0,8.463844299E0,-5.528214455E0
3.726541584E1,-1.203680038E-1,7.636257648E0,-5.973399639E0
3.728422928E1,-2.655974388E0,7.361140728E0,-6.493620872E0
3.730306891E1,-3.991357803E0,7.041605473E0,-7.295084000E0
3.732189547E1,-3.816527367E0,7.048659325E0,-8.408497810E0
3.734072198E1,-2.592047691E0,7.845001698E0,-8.473073959E0
3.735954855E1,-1.184592247E0,8.340187073E0,-7.337020874E0
3.737837506E1,3.553829193E-1,8.901165009E0,-5.942980766E0
3.739720162E1,1.726389885E0,8.429694176E0,-4.511502743E0
3.741602818E1,2.138411522E0,6.822271347E0,-4.550495148E0
3.743485469E1,1.453768730E0,5.882129192E0,-5.406635284E0
3.745368126E1,4.202995300E-1,6.309105873E0,-5.041458130E0
3.747250777E1,3.343439102E-1,5.850800514E0,-4.332201958E0
3.749133433E1,1.691274643E-1,5.153876781E0,-4.325939178E0
3.751014771E1,-1.241551399E0,4.429543495E0,-3.907788992E0
3.752898740E1,-2.648886681E0,3.466192961E0,-4.696155548E0
3.754781391E1,-1.780123711E0,4.748957634E0,-7.965219498E0
3.756662735E1,1.002664566E-1,9.548913002E0,-1.055680275E1
3.758546704E1,2.201743126E0,1.246693039E1,-1.011243534E1
3.760429355E1,5.283090591E0,1.020352077E1,-8.634536743E0
3.762310698E1,7.846559525E0,8.378055573E0,-6.194119930E0
3.764194662E1,9.549962044E0,7.973423958E0,-5.029156685E0
3.766077318E1,7.940897465E0,8.188784599E0,-5.685850143E0
3.767958657E1,3.939389706E0,8.410442352E0,-6.516710281E0
3.769842626E1,3.293313980E-1,8.914115906E0,-7.367403030E0
3.771725277E1,-2.536688805E0,9.107158661E0,-7.612184048E0
3.773607933E1,-3.363185883E0,1.017015934E1,-6.982438087E0
3.775490584E1,-2.791486740E0,1.097168922E1,-5.183395386E0
3.777373240E1,-1.638497353E0,1.114892387E1,-3.695382357E0
3.779255896E1,-1.377956390E0,1.140939522E1,-2.945036173E0
3.781138547E1,-2.503768921E0,1.122117996E1,-1.804714918E0
3.783021204E1,-3.580472946E0,1.015978146E1,-5.726711750E-1
3.784902542E1,-2.777590752E0,7.161234856E0,-4.163460732E-1
3.786786511E1,-8.564043045E-1,4.751850128E0,-1.027755737E0
3.788669162E1,5.338802338E-1,4.237286091E0,-1.243016243E0
3.790551818E1,8.613500595E-1,4.571480751E0,-1.306919098E0
3.792434469E1,1.011751175E0,4.950500488E0,-2.205148697E0
3.794317126E1,1.403906822E0,4.784935474E0,-2.441633224E0
3.796198469E1,2.159537315E0,3.492539883E0,-2.257613897E0
3.798082433E1,2.668802261E0,1.957594156E0,-2.242381811E0
3.799965089E1,1.919584274E0,1.589724898E0,-3.552226067E0
3.801846433E1,9.022836685E-1,3.875590086E0,-5.282641411E0
3.803730396E1,-2.202081680E-1,6.433804512E0,-5.087092400E0
3.805613047E1,-7.039470673E-1,6.222799778E0,-3.465526581E0
3.807495704E1,-4.176139832E-1,4.493137360E0,-2.147487402E0
3.809378360E1,-1.144322395E0,4.806027889E0,-1.425507784E0
3.811261011E1,-2.444483757E0,5.012806892E0,-1.664345264E0
3.813143667E1,-3.098996162E0,4.227622032E0,-1.972158432E0
3.815026318E1,-3.151894569E0,2.483463287E0,-2.361909151E0
3.816908974E1,-2.091272354E0,1.636223435E0,-2.566710711E0
3.818790318E1,-2.627801895E-1,2.181101561E0,-2.869559050E0
3.820674282E1,1.371361732E0,2.947436333E0,-3.470379591E0
3.822556933E1,2.656980038E0,3.215957165E0,-3.739202976E0
3.824438277E1,4.169457912E0,3.185624361E0,-3.537411690E0
3.826322245E1,5.395700455E0,3.282641649E0,-2.735086918E0
3.828204896E1,5.313188553E0,3.230992317E0,-1.659951091E0
3.830087553E1,4.235268593E0,3.415400743E0,-2.175424099E0
3.831970204E1,2.713581562E0,3.842084646E0,-3.058024406E0
3.833852860E1,5.016231537E-1,4.408976555E0,-3.174359560E0
3.835735516E1,-4.627647400E-1,4.693771362E0,-2.999871731E0
3.837618167E1,4.213724136E-1,5.246290684E0,-2.681034088E0
3.839500823E1,1.751391888E0,5.770269394E0,-1.635149240E0
3.841382167E1,3.335364342E0,5.387827873E0,-6.329364777E-1
3.843266131E1,4.587717056E0,5.158389568E0,5.266736746E-1
3.845148787E1,5.443696976E0,4.330698967E0,1.235312223E0
3.847031438E1,6.067732811E0,3.958809614E0,1.749765396E0
3.848914094E1,6.335417747E0,3.664567947E0,1.555400610E0
3.850796745E1,6.286452293E0,3.794207573E0,1.003117919E0
3.852678089E1,6.200791359E0,5.545101643E0,8.001459837E-1
3.854562058E1,4.739888668E0,7.701141834E0,2.624437332E0
3.856444709E1,2.433306694E0,6.199424744E0,3.206055880E0
3.858327365E1,2.105613708E0,4.727876663E0,3.154787064E0
3.860210016E1,2.463494301E0,5.800101757E0,2.996875048E0
3.862092672E1,1.675852299E0,7.050209045E0,3.548799038E0
3.863974016E1,-1.477103710E0,6.207184792E0,3.615283012E0
3.865857980E1,-5.191451550E0,3.917564392E0,1.872605324E0
3.867740636E1,-6.722521305E0,2.432901382E0,-1.431839466E-1
3.869623287E1,-6.347765446E0,3.151552200E0,-1.147874594E0
3.871505943E1,-6.200441837E0,3.054190636E0,-2.262692213E0
3.873388594E1,-5.980193138E0,2.127800941E0,-2.852945805E0
3.875271251E1,-5.270309925E0,1.299445629E0,-3.217604160E0
