"Time (s)","Linear Acceleration x (m/s^2)","Linear Acceleration y (m/s^2)","Linear Acceleration z (m/s^2)"
1.588806170E-1,-2.155857086E-1,-1.180057526E-1,-1.246094704E-1
1.777080130E-1,-1.500802040E-1,-1.414332390E-1,4.719209671E-2
1.965354090E-1,-2.094628811E-1,-1.635866165E-1,1.984267235E-1
2.153628050E-1,-2.544400692E-1,-1.757283211E-1,2.074861526E-1
2.341902010E-1,-2.313811779E-1,-1.987223625E-1,2.114243507E-1
2.530175960E-1,-2.224581242E-1,-1.388387680E-1,1.353249550E-1
2.718449400E-1,-2.298285961E-1,-5.982112885E-2,1.041884422E-1
2.906723360E-1,-2.044973373E-1,-2.182197571E-2,9.240531921E-2
3.094997320E-1,-1.933975220E-1,-4.971742630E-2,8.627796173E-2
3.283271280E-1,-1.901619434E-1,-3.359270096E-2,9.572649002E-2
3.471545230E-1,-1.462216377E-1,-1.724147797E-2,1.024837494E-1
3.659818670E-1,-1.255571842E-1,-4.068517685E-2,9.639549255E-2
3.848092630E-1,-3.892350197E-2,-9.369325638E-2,6.286668777E-2
4.036366590E-1,-5.072879791E-2,-6.868886948E-2,1.142692566E-2
4.224640550E-1,-6.763696671E-3,-4.665756226E-2,-2.430915833E-2
4.412914510E-1,2.312803268E-2,-9.510660172E-2,-1.802015305E-2
4.601188460E-1,2.921295166E-2,-5.820322037E-2,2.197456360E-2
4.789461900E-1,2.023625374E-2,-1.144123077E-2,3.742694855E-2
4.977735860E-1,9.036350250E-2,3.593254089E-2,6.044149399E-2
5.166009820E-1,1.711516380E-1,2.459049225E-3,-7.714271545E-3
5.354283780E-1,9.671545029E-2,1.072502136E-2,-2.647447586E-2
5.542557730E-1,1.238915920E-1,3.163242340E-2,-3.948879242E-2
5.730831690E-1,2.209639549E-1,4.901552200E-2,3.620910645E-2
5.919105650E-1,4.579570293E-1,1.564741135E-2,1.380362511E-1
6.107379090E-1,8.370022774E-1,1.821866035E-1,1.852402687E-1
6.295653050E-1,9.710488319E-1,7.373857498E-2,3.763217926E-1
6.483927010E-1,6.279172897E-1,-1.847429276E-1,1.925215721E-1
6.672200960E-1,8.375539780E-1,-1.822013855E-1,8.790302277E-2
6.860474920E-1,8.204367161E-1,-2.750778198E-1,1.264505386E-1
7.048748880E-1,5.521583557E-1,-4.135179520E-2,2.676835060E-1
7.237022840E-1,1.600846052E0,8.106551170E-1,1.339055538E0
7.425165550E-1,2.193813801E0,2.574648857E-1,1.149517536E0
7.613570760E-1,1.080828905E0,1.633078098E0,3.658185005E-1
7.801844190E-1,-1.177730560E-1,2.377176285E-2,-4.542005062E-1
7.990118150E-1,-5.590333939E-1,2.507147789E-1,-7.923946381E-1
8.178392110E-1,-9.988217354E-1,2.215738297E-1,-4.508037567E-1
8.366666070E-1,-8.800382614E-1,2.932548523E-2,-1.050405502E-1
8.554940030E-1,-2.322340012E-1,-6.379318237E-2,2.850799561E-1
8.743213980E-1,5.912921429E-1,-2.177276611E-1,5.643315315E-1
8.931487940E-1,1.405272245E0,-2.629961967E-1,5.715565681E-1
9.119761900E-1,2.009174824E0,-3.860187531E-1,4.436774254E-1
9.308035860E-1,2.103199005E0,-1.647205353E-1,-5.158424377E-2
9.496309820E-1,1.778771043E0,1.276350021E-1,-9.073088169E-1
9.684583260E-1,1.433194876E0,3.166408539E-1,-1.619657040E0
9.872857210E-1,1.284216166E0,4.853897095E-1,-2.063576937E0
1.006113117E0,1.169926643E0,8.103122711E-1,-2.117953539E0
1.024940513E0,6.262333393E-1,1.594372749E0,-1.863355160E0
1.043767909E0,-3.806710243E-2,1.832391739E0,-1.599708557E0
1.062595305E0,-2.058250904E-1,1.198320389E0,-1.508051634E0
1.081422701E0,-9.129619598E-2,9.640903473E-1,-1.317154884E0
1.100250096E0,-7.681179047E-2,1.026866913E0,-9.188716412E-1
1.119077492E0,-4.236671925E-1,1.193493843E0,-6.713097095E-1
1.137904888E0,-8.188405037E-1,1.219912529E0,-7.088804245E-1
1.156732284E0,-9.296329021E-1,9.254112244E-1,-9.161934853E-1
1.175559680E0,-9.509391785E-1,6.716222763E-1,-8.888006210E-1
1.194387076E0,-1.306046247E0,8.425741196E-1,-3.973588943E-1
1.213214471E0,-2.059177637E0,6.769599915E-1,-1.033689976E-1
1.232041867E0,-3.189763069E0,2.379913330E-1,-6.730394363E-1
1.250869263E0,-3.820125341E0,-3.742008209E-1,-1.197847605E0
1.269696659E0,-3.381639481E0,-6.863360405E-1,-6.286506653E-1
1.288524055E0,-2.964643955E0,-7.105102539E-1,-1.468994617E-1
1.307351451E0,-2.693310261E0,-9.497880936E-1,-4.859395027E-1
1.326178846E0,-1.919652939E0,-9.692306519E-1,-8.197975159E-1
1.345006242E0,-6.280045509E-1,-5.768036842E-1,-2.885007858E-1
1.363833638E0,3.933728933E-1,-1.674909592E-1,3.809604645E-1
1.382661034E0,9.117920995E-1,1.136207581E-2,5.786981583E-1
1.401488430E0,1.248173833E0,2.078790665E-1,7.476344109E-1
1.420315826E0,1.390004158E0,5.594291687E-1,9.167437553E-1
1.439143221E0,1.280882835E0,5.058822632E-1,1.338254929E0
1.457970669E0,6.937777400E-1,2.940683365E-1,1.417851925E0
1.476798065E0,-1.286189556E-1,-2.840614319E-2,9.888100624E-1
1.495625461E0,-4.253520966E-1,-8.410730362E-1,5.291705132E-1
1.514452857E0,-3.138055801E-1,-1.522763252E0,1.932239532E-1
1.533280253E0,1.644589901E-1,-1.827914715E0,-1.695361137E-1
1.552107648E0,8.507553935E-1,-1.895754814E0,-4.531078339E-1
1.570935044E0,1.528847456E0,-1.858557224E0,-6.529574394E-1
1.589762440E0,2.114987135E0,-1.572364807E0,-9.225969315E-1
1.608589836E0,2.466003418E0,-1.189698696E0,-9.714393616E-1
1.627417232E0,2.496207714E0,-8.916964531E-1,-6.566529274E-1
1.646244628E0,2.290811539E0,-9.088811874E-1,-2.756848335E-1
1.665072023E0,1.929495215E0,-9.473299980E-1,-2.940068245E-1
1.683899471E0,1.145139575E0,-5.619826317E-1,-6.253671646E-1
1.702713742E0,-1.162467003E-1,-2.041058540E-1,-6.907844543E-1
1.721554263E0,-1.126211166E0,-4.227557182E-1,-3.884840012E-1
1.740381659E0,-1.453536987E0,-9.017868042E-1,3.572416306E-2
1.759209055E0,-1.366575718E0,-8.522415161E-1,7.621474266E-1
1.778036451E0,-1.352451563E0,-3.139400482E-2,1.080710411E0
1.796863898E0,-1.761871099E0,1.569472313E0,8.038363457E-1
1.815691294E0,-2.123733759E0,1.929775238E0,3.769245148E-1
1.834518690E0,-1.875997543E0,1.410095215E0,3.723311424E-1
1.853346086E0,-1.424228191E0,1.313912392E0,5.988793373E-1
1.872173482E0,-1.156379938E0,1.444608688E0,4.954042435E-1
1.891000930E0,-8.258545399E-1,9.657926559E-1,-4.413032532E-2
1.909828326E0,-9.941244125E-2,4.760074615E-2,-2.750592232E-1
1.928655721E0,5.099583864E-1,-1.125125885E-1,1.540851593E-1
1.947483117E0,4.565094709E-1,-2.545166016E-2,-6.792664528E-2
1.966310513E0,-2.358143330E-1,-6.634273529E-1,-1.337481499E0
1.985137961E0,-8.691256046E-1,-9.623384476E-1,-2.241040707E0
2.003965357E0,-1.297445416E0,-5.399799347E-1,-2.120531082E0
2.022792753E0,-1.725963712E0,-2.969665527E-1,-1.947587490E0
2.041620201E0,-1.736687422E0,-1.331014633E-1,-1.933389902E0
2.060447596E0,-1.320694089E0,1.920442581E-1,-1.764886498E0
2.079274992E0,-8.266427517E-1,2.102603912E-1,-1.435511112E0
2.098102388E0,9.471392632E-2,1.312065125E-1,-1.817026615E0
2.116929836E0,1.560417652E0,2.206153870E-1,-1.786739111E0
2.135757232E0,2.837429523E0,3.955764771E-1,-1.266513944E0
2.154584628E0,2.789602995E0,5.998668671E-1,-1.168126225E0
2.173412076E0,1.716562033E0,1.256139755E0,-1.323701143E0
2.192239471E0,1.270292282E0,1.542689323E0,-8.609124422E-1
2.211066867E0,5.605607033E-1,1.598699570E0,-7.960391045E-2
2.229894315E0,-6.751074791E-1,1.206104279E0,-2.434568405E-1
2.248721711E0,-1.211209059E0,6.739921570E-1,-6.919807196E-1
2.267549107E0,-1.408906937E0,7.389650345E-1,-7.619539499E-1
2.286376555E0,-8.460063934E-1,7.322835922E-1,-8.753697872E-1
2.305203951E0,-3.081536293E-1,1.145783424E0,-1.119966030E0
2.324031346E0,-7.694597244E-1,1.415850639E0,-1.217356205E0
2.342858794E0,-1.165399551E0,1.216711998E0,-1.429275393E0
2.361686190E0,-5.899415016E-1,1.118284225E0,-1.136493683E0
2.380513638E0,-8.481836319E-2,1.072241783E0,-9.403004646E-1
2.399341034E0,-5.491352081E-2,9.976940155E-1,-1.017121553E0
2.418168430E0,-1.529908180E-1,1.188173771E0,-9.284325242E-1
2.436995878E0,2.336025238E-2,1.307495117E0,-4.902878404E-1
2.455823273E0,4.035377502E-1,1.298046112E0,-2.184922695E-1
2.474650721E0,7.924604416E-1,8.337340355E-1,-3.643375635E-1
2.493478117E0,1.504945278E0,5.274691582E-1,-2.388470173E-1
2.512305513E0,2.059350491E0,3.983516693E-1,-9.412217140E-2
2.531132961E0,1.787508965E0,3.844304085E-1,-3.422439098E-2
2.549960357E0,1.741737843E0,3.054866791E-1,-1.590092182E-1
2.568787805E0,2.255147934E0,2.378439903E-1,-2.737723589E-1
2.587615201E0,2.387236595E0,-1.013412476E-1,-4.926736355E-1
2.606442596E0,2.389398098E0,4.253387451E-3,-4.658963680E-1
2.625270044E0,2.241738796E0,4.675779343E-1,-4.348995686E-1
2.644097440E0,2.230944157E0,5.425753593E-1,-5.305093527E-1
2.662924888E0,2.202658653E0,6.583485603E-1,-6.658204794E-1
2.681752284E0,1.670861244E0,6.401538849E-1,-1.282353520E0
2.700579732E0,1.046540737E0,3.241696358E-1,-1.641833544E0
2.719407128E0,1.071387768E0,1.085567474E-2,-1.298541069E0
2.738234576E0,1.541546345E0,-1.364908218E-1,-5.842113495E-1
2.757061971E0,1.342992306E0,4.852991104E-1,-2.930212021E-2
2.775889419E0,5.350432396E-1,8.714404106E-1,-4.593271017E-1
2.794716815E0,-6.693496704E-1,9.105615616E-1,-9.047766328E-1
2.813544263E0,-1.349442482E0,7.005252838E-1,-8.337198496E-1
2.832371711E0,-1.509832382E0,5.736865997E-1,-4.975585938E-1
2.851199107E0,-1.597522259E0,3.740034103E-1,-4.380382299E-1
2.870026555E0,-1.704210758E0,-1.392650604E-2,-5.609815121E-1
2.888853951E0,-1.947668076E0,-2.684879303E-1,-5.587831736E-1
2.907681398E0,-2.085243225E0,-4.204435349E-1,-3.020220995E-1
2.926508846E0,-2.086712599E0,-6.796255112E-1,1.055591106E-1
2.945336242E0,-1.951747179E0,-1.013955116E0,4.690508842E-1
2.964163690E0,-2.096729517E0,-8.961744308E-1,8.713674545E-1
2.982991138E0,-2.415872574E0,-6.426410675E-1,9.632503986E-1
3.001818586E0,-2.820590019E0,-3.060827255E-1,8.830859661E-1
3.020645982E0,-3.237496614E0,-1.829004288E-1,9.184296131E-1
3.039473430E0,-3.089845181E0,-2.345638275E-1,9.590144157E-1
3.058300878E0,-2.783788204E0,-2.485980988E-1,1.196443558E0
3.077128326E0,-2.561291218E0,-1.230697632E-1,9.905097485E-1
3.095955773E0,-2.594709873E0,-1.286764145E-1,8.913788795E-1
3.114783169E0,-2.194880009E0,-3.887901306E-1,7.568743229E-1
3.133610617E0,-1.758797646E0,-3.765125275E-1,7.478849888E-1
3.152438065E0,-1.379467487E0,-3.846502304E-1,8.035061359E-1
3.171265513E0,-9.133110046E-1,-4.280710220E-1,1.015200615E0
3.190092909E0,-5.267715454E-1,-5.523900986E-1,1.099873543E0
3.208920357E0,-4.257400036E-1,-5.476646423E-1,9.629218578E-1
3.227747805E0,-4.481971264E-1,-7.048559189E-1,8.582615852E-1
3.246575253E0,-4.078476429E-1,-6.327533722E-1,7.931981087E-1
3.265402648E0,-4.738342762E-1,-2.106819153E-1,6.719703674E-1
3.284230096E0,-4.976897240E-1,1.946535110E-1,5.788857937E-1
3.303057544E0,-1.597218513E-1,4.972076416E-2,5.174751282E-1
3.321884992E0,-3.610610962E-3,-1.567711830E-1,4.912359715E-1
3.340712388E0,-1.322984695E-2,-9.527778625E-2,3.868138790E-1
3.359539836E0,-9.936380386E-2,1.456756592E-1,3.457312584E-1
3.378367284E0,-1.075696945E-1,3.771934509E-1,2.922925949E-1
3.397194680E0,6.338119507E-3,4.918889999E-1,2.579743862E-1
3.416022128E0,-1.068878174E-2,6.762881279E-1,1.419677734E-1
3.434849576E0,-1.171936989E-1,6.305484772E-1,8.189439774E-2
3.453676971E0,-1.517386436E-1,5.651788712E-1,-1.824364662E-1
3.472504419E0,-1.129307747E-1,5.623126030E-1,-3.603272438E-1
3.491331867E0,7.926940918E-2,4.471583366E-1,-4.746479988E-1
3.510159315E0,9.737300873E-2,4.677271843E-1,-5.971078873E-1
3.528986711E0,2.462878227E-1,5.199933052E-1,-7.084226608E-1
3.547814159E0,5.017743111E-1,5.852732658E-1,-7.306814194E-1
3.566641607E0,6.264171600E-1,6.280174255E-1,-5.241398811E-1
3.585469055E0,6.995210648E-1,4.632754326E-1,-3.822526932E-1
3.604296451E0,5.142793655E-1,3.915214539E-1,-3.724627495E-1
3.623123898E0,4.658308029E-1,3.652291298E-1,-4.548540115E-1
3.641951346E0,4.189329147E-1,4.309544563E-1,-4.914503098E-1
3.660778742E0,4.550375938E-1,4.974498749E-1,-4.122557640E-1
3.679606190E0,5.855007172E-1,5.481142998E-1,-3.225955963E-1
3.698433638E0,6.011061668E-1,5.756859779E-1,-3.073449135E-1
3.717261086E0,6.431512833E-1,6.652812958E-1,-4.304537773E-1
3.736088482E0,6.852846146E-1,7.908763885E-1,-4.964427948E-1
3.754915930E0,7.515373230E-1,8.753914833E-1,-4.981269836E-1
3.773743378E0,8.242235184E-1,9.101924896E-1,-4.679932594E-1
3.792570826E0,9.209580421E-1,8.659687042E-1,-4.849123955E-1
3.811398221E0,1.069741964E0,8.509750366E-1,-5.154609680E-1
3.830225669E0,1.149296761E0,8.145804405E-1,-4.063997269E-1
3.849053117E0,1.119515181E0,7.631044388E-1,-3.586878777E-1
3.867880565E0,9.747233391E-1,7.646217346E-1,-3.870749474E-1
3.886708013E0,7.358241081E-1,7.847771645E-1,-3.450436592E-1
3.905535409E0,6.435599327E-1,7.107777596E-1,-3.114213943E-1
3.924362857E0,5.173320770E-1,7.375469208E-1,-2.401580811E-1
3.943190305E0,3.817386627E-1,7.180423737E-1,-1.117634773E-1
3.962017753E0,2.850756645E-1,5.839333534E-1,-8.603715897E-2
3.980845148E0,2.034416199E-1,5.573744774E-1,-1.724858284E-1
3.999672596E0,1.086778641E-1,5.993762016E-1,-2.002253532E-1
4.018500044E0,1.221570969E-1,6.301002502E-1,-2.703661919E-1
4.037327492E0,7.944583893E-2,6.559767723E-1,-3.714041710E-1
4.056154940E0,1.855373383E-2,6.123461723E-1,-4.795126915E-1
4.074982336E0,4.135131836E-2,5.540332794E-1,-5.086822510E-1
4.093809784E0,1.008214951E-1,4.344892502E-1,-5.115408897E-1
4.112637232E0,8.205604553E-2,4.075145721E-1,-5.461974144E-1
4.131464680E0,1.475005150E-1,4.718356133E-1,-5.182981491E-1
4.150292128E0,5.450897217E-1,7.399668694E-1,-3.802843094E-1
4.169119523E0,9.938225746E-1,8.772745132E-1,-2.591562271E-1
4.187946971E0,1.174909353E0,1.209080696E0,-2.112731934E-1
4.206774419E0,1.280894995E0,1.333852291E0,-3.773837090E-1
4.225601867E0,1.434378386E0,1.496517181E0,-4.416594505E-1
4.244429315E0,1.504277945E0,1.546236515E0,-5.007958412E-1
4.263256763E0,1.450841188E0,1.425816536E0,-5.131039619E-1
4.282084159E0,1.396399021E0,1.356323719E0,-4.693431854E-1
4.300911607E0,1.244277000E0,1.200820923E0,-4.292774200E-1
4.319739055E0,1.018973589E0,1.287351608E0,-3.687295914E-1
4.338566503E0,7.170450687E-1,1.167849064E0,-3.848519325E-1
4.357393951E0,6.296529770E-1,9.645943642E-1,-5.359873772E-1
4.376221398E0,6.208653450E-1,7.864217758E-1,-6.835551262E-1
4.395048846E0,7.352435589E-1,6.883540154E-1,-8.717293739E-1
4.413876294E0,1.002840519E0,6.110296249E-1,-1.106000900E0
4.432703690E0,1.389868021E0,5.676531792E-1,-1.381075859E0
4.451531138E0,1.722039700E0,6.212954521E-1,-1.581270695E0
4.470358586E0,2.052645683E0,4.769077301E-1,-1.771412849E0
4.489186034E0,2.250928640E0,3.903899193E-1,-1.918100357E0
4.508013482E0,2.239529133E0,2.613434792E-1,-1.859775066E0
4.526840930E0,2.157683134E0,1.686892509E-1,-1.781286716E0
4.545668378E0,1.962579250E0,1.991081238E-1,-1.577706337E0
4.564495826E0,1.726128817E0,2.638325691E-1,-1.358145714E0
4.583323273E0,1.513200998E0,3.143239021E-1,-9.881381989E-1
4.602150721E0,1.359920502E0,5.582799911E-1,-4.775938988E-1
4.620978169E0,1.132314205E0,1.137582302E0,2.922797203E-1
4.639805617E0,7.707209587E-1,1.337696075E0,8.009119034E-1
4.658633065E0,3.596258163E-2,1.268244267E0,9.937310219E-1
4.677460513E0,-6.560459137E-1,1.012939930E0,1.297536850E0
4.696287961E0,-1.285131931E0,2.614960670E-1,1.491337299E0
4.715115409E0,-1.881053448E0,-9.480915070E-1,1.406193733E0
4.733942857E0,-2.622130871E0,-1.681993961E0,1.341883659E0
4.752770305E0,-3.637820244E0,-1.798448086E0,1.286746502E0
4.771597753E0,-4.849191189E0,-1.510458469E0,9.876270294E-1
4.790425201E0,-5.906571388E0,-9.246816635E-1,9.148015976E-1
4.809252648E0,-6.732116699E0,-4.107370377E-1,9.470014572E-1
4.828080096E0,-7.055194378E0,-9.034347534E-2,1.225347519E0
4.846907544E0,-6.900582314E0,2.514290810E-1,1.557974339E0
4.865734992E0,-6.134171486E0,1.504125595E-1,1.900205612E0
4.884562440E0,-4.946119308E0,1.502132416E-2,2.048867226E0
4.903389888E0,-3.667352200E0,1.803102493E-1,1.824885845E0
4.922217336E0,-2.597895145E0,4.366855621E-1,1.417141438E0
4.941044784E0,-1.879496336E0,7.536253929E-1,8.874087334E-1
4.959872284E0,-1.276189327E0,7.736201286E-1,2.271828651E-1
4.978699732E0,-7.353124619E-1,6.696233749E-1,-2.838778496E-1
4.997527180E0,-3.649616241E-1,4.736113548E-1,-7.237067223E-1
5.016354628E0,3.280138969E-2,2.223401070E-1,-1.219783783E0
5.035182076E0,3.926503658E-1,-8.027744293E-2,-1.696100235E0
5.054009523E0,8.009078503E-1,-2.661623955E-1,-1.737145901E0
5.072836971E0,1.108165264E0,-5.966424942E-1,-1.836038589E0
5.091664419E0,1.354042053E0,-7.447876930E-1,-1.857660770E0
5.110491867E0,1.716968775E0,-6.718852520E-1,-1.849338055E0
5.129319315E0,2.147408009E0,-9.899852276E-1,-1.958713531E0
5.148146815E0,2.615813732E0,-1.537640810E0,-1.924037933E0
5.166974263E0,2.871560574E0,-1.414254665E0,-1.758064270E0
5.185801711E0,2.716070175E0,-9.161620140E-1,-1.712359428E0
5.204629159E0,2.342489719E0,-3.318409920E-1,-1.560955048E0
5.223456607E0,2.090456724E0,-3.324451447E-1,-1.348948002E0
5.242284055E0,1.764028072E0,-4.598889351E-1,-1.172525406E0
5.261111503E0,1.414347887E0,-5.823354721E-1,-1.081982136E0
5.279938951E0,1.007625818E0,-8.530917168E-1,-1.152372837E0
5.298766398E0,4.127233028E-1,-4.964952469E-1,-1.231775284E0
5.317593898E0,-3.487658501E-2,1.685705185E-1,-1.085772991E0
5.336421346E0,-3.540086746E-1,6.266689301E-1,-6.018700600E-1
5.355248794E0,-5.229740143E-1,1.178531170E0,1.822957993E-1
5.374076242E0,-9.871385098E-1,1.942710876E0,1.080002308E0
5.392903690E0,-1.646474600E0,1.637814045E0,1.820988655E0
5.411731138E0,-2.381017685E0,-4.011917114E-2,2.231956959E0
5.430545461E0,-3.085481882E0,-2.480478048E0,2.659903049E0
5.449386034E0,-3.808950901E0,-3.399491072E0,2.933017731E0
5.468213482E0,-4.262634277E0,-2.355605125E0,3.002982140E0
5.487040982E0,-3.913955927E0,-6.753263474E-1,2.940076351E0
5.505868430E0,-3.362948418E0,3.274550438E-1,2.783557892E0
5.524695878E0,-3.254466295E0,4.394407272E-1,2.404800892E0
5.543523326E0,-3.511718750E0,7.873382568E-1,2.156927109E0
5.562350773E0,-3.758537769E0,9.088721275E-1,2.149456024E0
5.581178221E0,-3.637478352E0,8.334059715E-1,2.305882931E0
5.600005721E0,-3.300505161E0,4.502267838E-1,2.328530312E0
5.618833169E0,-3.142387390E0,1.685490608E-1,1.989665508E0
5.637660617E0,-2.979997158E0,-2.428689003E-1,1.228089809E0
5.656488065E0,-2.508443832E0,-5.921359062E-1,3.163824081E-1
5.675315513E0,-1.882125854E0,-5.869450569E-1,-4.415440559E-1
5.694142961E0,-1.297722816E0,-3.588657379E-1,-9.523968697E-1
5.712970409E0,-8.197259903E-1,-1.130659342E0,-1.392860889E0
5.731797909E0,-6.341934204E-2,-1.582629681E0,-1.983530998E0
5.750625357E0,4.306192398E-1,-1.270913363E0,-2.560583115E0
5.769452805E0,8.397808075E-1,-7.777700424E-1,-3.131290436E0
5.788280253E0,1.231355906E0,-5.156950951E-1,-3.415557861E0
5.807107701E0,1.319946051E0,-5.470092297E-1,-3.717757225E0
5.825935148E0,1.248239994E0,-3.873658180E-1,-3.803836584E0
5.844762648E0,1.140085459E0,-8.436059952E-2,-3.426854134E0
5.863590096E0,1.024589539E0,4.601011276E-1,-2.813784122E0
5.882417544E0,8.685832024E-1,1.589298964E0,-2.009745598E0
5.901244992E0,1.156449556E0,2.075955153E0,-8.604331017E-1
5.920072492E0,1.315875769E0,1.448286772E0,-1.046724319E-1
5.938899940E0,7.768709660E-1,7.668750286E-1,3.517341614E-2
5.957727388E0,3.022460938E-1,1.245283842E0,3.957042694E-1
5.976554836E0,6.388592720E-1,3.919597149E0,1.173436642E0
5.995382336E0,1.351881981E0,3.834574461E0,1.280228615E0
6.014209784E0,1.013699293E0,2.111444473E0,4.016351700E-1
6.033037232E0,1.207110405E0,2.951480150E0,5.931282043E-2
6.051864680E0,1.710651875E0,3.912903547E0,-9.886741638E-3
6.070692128E0,1.765654325E0,4.195379257E0,3.393211365E-1
6.089519628E0,1.242321730E0,3.529057980E0,8.527917862E-1
6.108347076E0,3.137190342E-1,2.660992622E0,1.353877068E0
6.127174523E0,-1.027693748E0,1.684303045E0,1.022225380E0
6.146001971E0,-2.531986237E0,1.136737823E0,2.981491089E-1
6.164829471E0,-3.190928936E0,1.286092758E0,-5.606222153E-2
6.183656919E0,-3.023342133E0,1.490158319E0,2.813911438E-2
6.202484367E0,-2.663620472E0,1.551477432E0,-1.131510735E-1
6.221311815E0,-2.427721024E0,1.505144358E0,-5.879592896E-1
6.240139315E0,-2.045151711E0,1.691202641E0,-1.255999088E0
6.258966763E0,-1.465892792E0,1.281733990E0,-1.687212467E0
6.277794211E0,-1.583973408E0,1.591700315E0,-1.779164314E0
6.296621659E0,-2.183129311E0,1.836825252E0,-1.739825726E0
6.315449159E0,-2.110040188E0,1.749456882E0,-1.681945801E0
6.334276607E0,-1.582701683E0,1.656936288E0,-1.711909294E0
6.353104055E0,-9.250345230E-1,1.302088380E0,-2.139940739E0
6.371931555E0,-3.715181351E-1,8.106631041E-1,-2.908197880E0
6.390759003E0,1.468834877E-1,8.465265632E-1,-3.538400650E0
6.409586451E0,6.256227493E-1,1.361477137E0,-3.795708179E0
6.428413898E0,9.393153191E-1,1.765590072E0,-3.853036404E0
6.447241398E0,9.965929985E-1,1.711969852E0,-3.834881306E0
6.466068846E0,7.492318153E-1,1.367909908E0,-3.872877598E0
6.484896294E0,6.183667183E-1,1.247241974E0,-3.867944241E0
6.503723742E0,8.528757095E-1,1.198074698E0,-3.550940037E0
6.522551242E0,1.510504723E0,1.312737703E0,-3.126670361E0
6.541378690E0,1.914765358E0,1.812956572E0,-2.564929485E0
6.560206138E0,1.864363194E0,2.104940653E0,-1.829379559E0
6.579033586E0,1.339348316E0,2.208343506E0,-7.430515289E-1
6.597861086E0,3.630080223E-1,1.830042362E0,1.772837639E-1
6.616675409E0,-1.370774269E0,1.985281587E0,4.532332420E-1
6.635515982E0,-3.143874645E0,2.383427143E0,7.894573212E-1
6.654343430E0,-4.003287792E0,1.972061038E0,6.807155609E-1
6.673170930E0,-4.078446865E0,1.537876487E0,9.879536629E-1
6.691998378E0,-3.652792931E0,7.078430653E-1,1.349949837E0
6.710825826E0,-3.351503372E0,6.397705078E-1,1.119351864E0
6.729653326E0,-3.183568954E0,9.194426537E-1,7.584686279E-1
6.748480773E0,-2.549693108E0,1.516779423E0,-1.864576340E-2
6.767308221E0,-1.839330673E0,1.990105867E0,-1.179537773E-1
6.786135669E0,-7.808957100E-1,1.966768742E0,-6.030125618E-1
6.804963169E0,-1.690797806E-1,2.473412037E0,-1.041326046E0
6.823790617E0,4.146552086E-1,3.178917408E0,-1.298516750E0
6.842618065E0,9.293742180E-1,3.717185974E0,-1.280538082E0
6.861445565E0,1.590075970E0,3.921900511E0,-9.659895897E-1
6.880273013E0,2.397950888E0,3.786909819E0,-5.014743805E-1
6.899100461E0,2.997519732E0,3.577416897E0,-3.850402832E-1
6.917927961E0,3.496125221E0,3.169422388E0,-5.770716667E-1
6.936755409E0,4.038164139E0,2.800883055E0,-7.263889313E-1
6.955582857E0,4.528030872E0,2.376346350E0,-1.000920296E0
6.974410357E0,4.810621738E0,2.213457108E0,-1.127425671E0
6.993237805E0,5.047677040E0,2.444298983E0,-7.497000694E-1
7.012065253E0,5.169465065E0,2.553446293E0,-3.483366966E-1
7.030892753E0,4.709051609E0,2.541000843E0,-2.888221741E-1
7.049720201E0,3.862907410E0,2.189286470E0,-3.675622940E-1
7.068547701E0,3.465862274E0,1.253372431E0,-4.326267242E-1
7.087375148E0,3.099289894E0,9.274597168E-1,-1.846370697E-1
7.106202596E0,2.564387798E0,1.306252718E0,2.702107430E-1
7.125030096E0,1.787516594E0,1.808688164E0,4.587130547E-1
7.143857544E0,7.458548546E-1,2.008171797E0,4.266738892E-1
7.162684992E0,-7.001075745E-1,1.222410679E0,4.654994011E-1
7.181512492E0,-1.821473598E0,-1.734392643E-1,3.858690262E-1
7.200339940E0,-2.740399837E0,-1.087682962E0,7.739605904E-1
7.219167440E0,-3.416363716E0,-1.740096569E0,6.874771118E-1
7.237994888E0,-3.836364269E0,-2.061720371E0,5.029187202E-1
7.256822388E0,-3.536210537E0,-2.071561337E0,7.471647263E-1
7.275649836E0,-2.679791212E0,-1.214138508E0,1.249370098E0
7.294477336E0,-2.010091305E0,-1.790328026E-1,2.137103558E0
7.313304784E0,-2.015557051E0,-8.471393585E-2,2.635168552E0
7.332132232E0,-2.629496574E0,-3.623321056E-1,2.565120697E0
7.350959732E0,-3.307075024E0,-6.722939014E-1,2.220501900E0
7.369787180E0,-3.097751141E0,-7.104618549E-1,1.712295532E0
7.388614680E0,-2.098863125E0,-3.973355293E-1,1.290998459E0
7.407442128E0,-8.389811516E-1,-1.743247509E-1,1.355638504E0
7.426269628E0,2.140045166E-1,-1.204192638E-1,1.475346088E0
7.445097076E0,6.252322197E-1,-1.481559277E-1,1.303894997E0
7.463924576E0,4.046850204E-1,-1.919269562E-2,9.132981300E-1
7.482752023E0,9.132003784E-2,-2.648386955E-1,3.594560623E-1
7.501579523E0,4.200935364E-3,-5.891165733E-1,1.949491501E-1
7.520406971E0,2.686305046E-1,-4.968521595E-1,3.193283081E-1
7.539234471E0,5.258378983E-1,-1.000356674E-2,4.657254219E-1
7.558061919E0,8.210272789E-1,1.081004143E-1,2.487335205E-1
7.576889419E0,1.010652065E0,1.897175312E-1,1.501908302E-1
7.595716867E0,1.032239437E0,3.142402172E-1,-4.512310028E-3
7.614544367E0,9.008069038E-1,4.436373711E-2,-3.254084587E-1
7.633371815E0,9.501643181E-1,-3.215529919E-1,-6.749453545E-1
7.652199315E0,1.242442608E0,-8.071730137E-1,-1.098288536E0
7.671026763E0,1.681916475E0,-1.149758697E0,-1.419422626E0
7.689854263E0,1.985596180E0,-1.238182664E0,-1.629422665E0
7.708681711E0,1.895511389E0,-1.290850401E0,-2.096063137E0
7.727509211E0,1.541300535E0,-1.294830561E0,-2.692502499E0
7.746336659E0,1.054710627E0,-1.290201426E0,-3.192132473E0
7.765164159E0,5.671434402E-1,-1.148557544E0,-3.269803524E0
7.783991607E0,3.097195625E-1,-1.169537067E0,-3.167860508E0
7.802819107E0,1.270642281E-1,-1.287040710E0,-2.993874550E0
7.821646607E0,-1.148529053E-1,-1.116162539E0,-2.747057438E0
7.840474055E0,-6.328310966E-1,-4.314198494E-1,-2.304241657E0
7.859301555E0,-1.044603825E0,3.831853867E-1,-1.385287285E0
7.878129003E0,-1.220806837E0,7.196552753E-1,2.962055206E-1
7.896956503E0,-1.457738161E0,6.705019474E-1,1.704545975E0
7.915783951E0,-2.257186890E0,1.260962963E0,2.648004532E0
7.934611451E0,-3.070734024E0,1.224180698E0,3.192649841E0
7.953438951E0,-3.326190948E0,2.141122818E-1,3.253611088E0
7.972253273E0,-2.775370121E0,-1.734510660E0,2.973605633E0
7.991093898E0,-1.543249130E0,-3.560461044E0,2.465145588E0
8.009921346E0,-2.396886349E-1,-2.825013399E0,2.120609283E0
8.028735721E0,7.453818321E-1,-3.884000778E-1,1.966987610E0
8.047576294E0,9.812848568E-1,9.784383774E-1,1.787478447E0
8.066403794E0,7.313349247E-1,6.760568619E-1,1.761616707E0
8.085231242E0,8.955335617E-2,-7.963657379E-3,1.805793762E0
8.104058742E0,-1.061848640E0,-2.219755650E-1,1.866810322E0
8.122886242E0,-2.008746624E0,-4.236469269E-1,1.800965786E0
8.141713690E0,-2.462931156E0,-5.801737309E-1,1.563095570E0
8.160541190E0,-2.302787304E0,-7.042033672E-1,1.401690960E0
8.179368638E0,-1.600729942E0,-7.260930538E-1,1.366989613E0
8.198196138E0,-9.468350410E-1,-6.725075245E-1,1.083114624E0
8.217023586E0,-7.330226898E-1,-6.949067116E-1,5.874781609E-1
8.235851086E0,-7.634267807E-1,-8.986067772E-1,-3.287744522E-2
8.254678534E0,-8.477497101E-1,-1.081237316E0,-6.041588783E-1
8.273506034E0,-9.252409935E-1,-1.492383003E0,-1.351513863E0
8.292333534E0,-8.554825783E-1,-1.574725628E0,-1.849317074E0
8.311160982E0,-6.305832863E-1,-1.282523155E0,-2.245038986E0
8.329988482E0,-5.006589890E-1,-9.671103954E-1,-2.241712093E0
8.348815930E0,-2.726912498E-1,-6.803760529E-1,-2.032467365E0
8.367643430E0,-1.822776794E-1,-6.111247540E-1,-1.839536667E0
8.386470930E0,-4.539346695E-2,-7.346775532E-1,-1.794870377E0
8.405298378E0,2.267293930E-1,-5.196685791E-1,-1.880164623E0
8.424125878E0,3.536310196E-1,5.225086212E-2,-1.951058865E0
8.442953326E0,4.568438530E-1,8.804244995E-1,-1.649442196E0
8.461780826E0,8.627133369E-1,1.527513742E0,-7.805795670E-1
8.480608326E0,9.322354794E-1,1.921902180E0,-2.810120583E-1
8.499435773E0,5.257649422E-1,1.482983828E0,-3.008513451E-1
8.518263273E0,2.662868500E-1,1.134862661E0,-3.548765182E-1
8.537090773E0,5.104098320E-1,1.242964268E0,-1.411943436E-1
8.555918221E0,1.127083540E0,1.372909784E0,1.005859375E-1
8.574745721E0,1.629473686E0,1.635529280E0,2.340564728E-1
8.593573221E0,1.848229170E0,2.096094131E0,3.417568207E-1
8.612400669E0,2.134686947E0,2.186029196E0,5.114879608E-1
8.631228169E0,2.521503687E0,2.230873346E0,8.018999100E-1
8.650055669E0,2.697137356E0,2.092144489E0,1.005007744E0
8.668883117E0,2.721330166E0,1.822458982E0,1.128560066E0
8.687710617E0,2.807909489E0,2.003691435E0,1.238055229E0
8.706538117E0,2.661976099E0,2.255981445E0,1.082661629E0
8.725365565E0,2.372107983E0,2.335739851E0,8.030338287E-1
8.744193065E0,1.989102602E0,2.410215378E0,4.496011734E-1
8.763020565E0,1.666053534E0,2.352737188E0,1.591806412E-1
8.781848013E0,1.400058270E0,1.952923536E0,-2.023043633E-1
8.800675513E0,9.947643280E-1,1.620583773E0,-4.973697662E-1
8.819503013E0,4.065513611E-1,1.732189655E0,-8.211002350E-1
8.838330461E0,-2.540044785E-1,1.790845156E0,-1.054785252E0
8.857157961E0,-6.393008232E-1,1.719060659E0,-9.865741730E-1
8.875985461E0,-9.187221527E-1,1.289025307E0,-9.992485046E-1
8.894812961E0,-1.035276413E0,4.074862003E-1,-1.243423462E0
8.913640461E0,-1.316451073E0,-4.332404137E-1,-1.531076431E0
8.932467909E0,-1.388371468E0,-1.304038048E0,-2.053886890E0
8.951295409E0,-1.405650139E0,-1.687354803E0,-2.582480431E0
8.970122909E0,-1.274736881E0,-1.396198988E0,-2.711845398E0
8.988950409E0,-9.524712563E-1,-8.800816536E-1,-2.835966110E0
9.007777857E0,-9.441967010E-1,-2.213599682E-1,-2.882100105E0
9.026605357E0,-8.570332527E-1,1.502399445E-1,-2.594972134E0
9.045432857E0,-9.977316856E-1,4.393362999E-2,-2.272541046E0
9.064260357E0,-1.567886829E0,5.348968506E-2,-2.002774715E0
9.083087857E0,-2.194518089E0,1.378047466E-1,-1.374230385E0
9.101915305E0,-2.851060867E0,1.054918051E0,-1.059241295E-1
9.120742805E0,-3.444490910E0,2.346093178E0,1.464346886E0
9.139570305E0,-3.973396778E0,2.693355083E0,2.666984081E0
9.158397805E0,-4.623800278E0,2.041165829E0,3.496745110E0
9.177225305E0,-5.110664368E0,1.384940147E0,4.199379444E0
9.196052753E0,-4.642554760E0,9.636020660E-1,3.680265427E0
9.214867128E0,-2.862021446E0,5.869007111E-1,2.349750996E0
9.233707753E0,-5.231266022E-1,8.980226517E-1,9.138741493E-1
9.252535253E0,1.584217548E0,2.850162029E0,1.020102978E0
9.271362701E0,2.951496840E0,3.937158823E0,1.450023651E0
9.290190201E0,3.240531683E0,3.989541769E0,1.271996021E0
9.309017701E0,2.974549770E0,4.110715866E0,1.156032085E0
9.327845201E0,2.627749205E0,3.909336090E0,1.037404060E0
9.346672648E0,1.789956093E0,3.453056335E0,8.037829399E-1
9.365500148E0,1.016138077E0,2.566719532E0,7.643799782E-1
9.384327648E0,7.368311882E-1,2.472224712E0,3.660774231E-1
9.403155096E0,1.044197083E0,2.498941422E0,-3.773250580E-1
9.421982596E0,1.888266563E0,2.690608263E0,-1.764724255E0
9.440796971E0,2.992133379E0,3.063311100E0,-3.187229633E0
9.459637596E0,4.045125008E0,3.804314137E0,-5.069013596E0
9.478465044E0,5.263546944E0,3.705692291E0,-6.294305801E0
9.497292544E0,6.336333275E0,3.160743237E0,-6.846844196E0
9.516120044E0,7.575735092E0,2.445743084E0,-7.032432556E0
9.534947544E0,9.451703072E0,1.642878413E0,-5.496795654E0
9.553774992E0,1.093608475E1,2.118553877E0,-3.704809189E0
9.572602492E0,1.006900024E1,3.162452698E0,-1.585780621E0
9.591429992E0,7.012337685E0,3.056847572E0,1.216406822E0
9.610244367E0,3.493428946E0,1.649948597E0,3.042519093E0
9.629084992E0,-1.690430641E0,1.055012703E0,2.048241615E0
9.647912440E0,-7.321300983E0,-7.946842909E-1,5.891032219E-1
9.666726867E0,-1.068736458E1,-2.078330994E0,-1.565752029E-1
9.685567440E0,-1.145091820E1,-2.973030806E0,-6.191606522E-1
9.704394940E0,-1.004974937E1,-3.821532488E0,-7.300009727E-1
9.723209315E0,-8.409990311E0,-4.421937466E0,2.178387642E-1
9.742049888E0,-7.176362038E0,-4.953735352E0,1.029075146E0
9.760877388E0,-6.369215012E0,-3.657734394E0,1.476197720E0
9.779691763E0,-5.232934475E0,-2.898438931E0,1.318251133E0
9.798532388E0,-4.271974564E0,-2.924546719E0,9.138278961E-1
9.817359888E0,-3.120318890E0,-2.378968000E0,2.889285088E-1
9.836174263E0,-1.489305019E0,-7.642242908E-1,1.577211380E0
9.855014836E0,2.105140686E-1,8.126158714E-1,2.504945755E0
9.873842336E0,1.055652618E0,1.212533951E0,2.670268059E0
9.892669836E0,1.562263012E0,1.548782349E0,2.481313705E0
9.911497336E0,1.918980122E0,1.595565319E0,2.285313129E0
9.930324836E0,1.937381744E0,1.614219666E0,1.900846958E0
9.949152336E0,2.162653923E0,1.555492401E0,1.584634304E0
9.967979784E0,2.431195259E0,1.675545216E0,1.366040707E0
9.986807284E0,2.165752411E0,1.253681660E0,1.121892929E0
1.000563478E1,1.767675161E0,5.281662941E-1,7.054772377E-1
1.002446228E1,1.737377644E0,-2.084965706E-1,5.823369026E-1
1.004328978E1,1.732380390E0,-8.171627522E-1,2.988185883E-1
1.006211728E1,1.388204098E0,-8.941872120E-1,2.100033760E-1
1.008094473E1,1.000623703E0,-8.897364140E-1,3.920493126E-1
1.009977223E1,8.210639954E-1,-1.721517801E0,5.147933960E-2
1.011859973E1,7.353420258E-1,-2.388577461E0,-5.056519508E-1
1.013742723E1,5.694942474E-1,-2.541371822E0,-7.302446365E-1
1.015625473E1,7.684512138E-1,-2.997854948E0,-6.354947090E-1
1.017508223E1,8.229279518E-1,-3.513848066E0,-2.546353340E-1
1.019390968E1,1.800150871E-1,-3.380729437E0,-5.650906563E-1
1.021273718E1,-6.636743546E-1,-2.566145420E0,-1.063093662E0
1.023156468E1,-1.185478210E0,-1.761906862E0,-1.375213623E0
1.025039218E1,-1.179466724E0,-1.653296471E0,-8.171405792E-1
1.026921968E1,-1.010485172E0,-1.877628565E0,-2.924833298E-1
1.028804718E1,-8.424630165E-1,-2.019244671E0,1.970992088E-1
1.030687468E1,-6.367802620E-1,-1.688577652E0,5.308542252E-1
1.032570218E1,-1.074982643E0,-1.212185621E0,1.158081532E0
1.034452968E1,-2.067073345E0,-9.400928020E-1,1.479400158E0
1.036335713E1,-2.868660927E0,-1.019163609E0,1.659692287E0
1.038218463E1,-2.953468323E0,-1.296093702E0,1.116483688E0
1.040101213E1,-2.115604401E0,-1.500602245E0,2.137150764E-1
1.041983963E1,-1.136779785E0,-8.304109573E-1,-8.242940903E-2
1.043866713E1,-1.121220589E-1,1.851358414E-1,8.158807755E-1
1.045749463E1,1.092592239E0,1.301479340E-2,1.702493191E0
1.047632213E1,1.888206959E0,-7.563621998E-1,2.804818153E0
1.049514963E1,1.415048122E0,-7.154176235E-1,2.719897747E0
1.051396400E1,-1.739110947E-1,-4.354982376E-1,1.760880470E0
1.053280463E1,-2.103858948E0,1.751089096E-2,1.258730412E0
1.055163213E1,-2.789720058E0,-4.714488983E-2,1.011971474E0
1.057045958E1,-1.607938290E0,-6.363101006E-1,1.263588428E0
1.058928708E1,-5.517539978E-1,-7.085506916E-1,1.958605289E0
1.060811458E1,-4.969229698E-1,-1.011390686E0,1.905987263E0
1.062694208E1,-4.090213776E-1,-1.535511017E0,1.907941341E0
1.064576958E1,-4.221816063E-1,-2.173860550E0,1.257251263E0
1.066459708E1,-5.011401176E-1,-2.571445704E0,6.057329178E-1
1.068342458E1,-7.831544876E-1,-2.037643671E0,7.737874985E-2
1.070225208E1,-1.102371693E0,-1.525230646E0,-7.477083206E-1
1.072107958E1,-1.213990688E0,-9.486644268E-1,-1.804471493E0
1.073990708E1,-2.451009750E-1,-3.958561420E-1,-2.454308510E0
1.075873458E1,1.088201046E0,5.725879669E-1,-3.152145386E0
1.077756208E1,1.718305588E0,1.223576784E0,-3.580028296E0
1.079638958E1,2.294228554E0,1.331079483E0,-2.976506472E0
1.081521708E1,2.423062325E0,1.379074574E0,-2.173704147E0
1.083404458E1,1.762158871E0,1.546564817E0,-7.802863121E-1
1.085285895E1,4.808878899E-1,6.890420914E-1,-6.490035057E-1
1.087169958E1,-1.664598942E0,6.907701492E-1,-9.818215370E-1
1.089052702E1,-2.689981937E0,5.012960434E-1,-8.808107376E-1
1.090935458E1,-2.286006927E0,-2.382690907E-1,-1.086363792E0
1.092818208E1,-1.195114613E0,4.872283936E-1,-1.587740421E0
1.094700952E1,-8.026885986E-2,2.404354095E0,-1.644949436E0
1.096582395E1,1.468804836E0,3.386561871E0,-1.159792423E0
1.098466452E1,2.687887430E0,3.653525829E0,1.812553406E-1
1.100349202E1,2.810951948E0,2.883440495E0,7.745828629E-1
1.102231952E1,2.150984764E0,1.880492687E0,2.920403481E-1
1.104114702E1,1.598893642E0,1.655771732E0,-5.743241310E-1
1.105997452E1,1.302274227E0,1.945268154E0,-4.514622688E-1
1.107880202E1,1.127674580E0,1.579154015E0,6.238880157E-1
1.109762952E1,5.006976128E-1,1.382417202E0,1.008855343E0
1.111645702E1,-1.194577217E-1,1.038636208E0,1.031134605E0
1.113528452E1,-6.922464371E-1,8.836512566E-1,6.237339973E-1
1.115411202E1,-9.503746033E-1,4.505457878E-1,3.445849419E-1
1.117293952E1,-1.109344959E0,-3.085565567E-2,2.133808136E-1
1.119176702E1,-1.344650269E0,-9.856224060E-3,1.267085075E-1
1.121059452E1,-1.827723026E0,4.094223976E-1,2.983441353E-1
1.122942202E1,-1.761922359E0,5.799198151E-2,1.920557022E-2
1.124824952E1,-5.056881905E-1,-1.019401550E-1,-1.057052612E-1
1.126707702E1,7.079143524E-1,3.524436951E-1,3.816828728E-1
1.128590452E1,9.134259224E-1,4.934024811E-2,7.017855644E-1
1.130473202E1,4.948616028E-1,-4.263799191E-1,6.586852074E-1
1.132355952E1,4.697341919E-1,-1.087328196E0,-1.427364349E-2
1.134238702E1,5.601305962E-1,-1.287067890E0,-1.213464737E-1
1.136121452E1,6.484103203E-1,-1.408568144E0,-2.678718567E-1
1.138004202E1,7.787237167E-1,-2.222393990E0,-5.200448036E-1
1.139886958E1,1.052726746E0,-2.843574524E0,-2.863936424E-1
1.141769708E1,1.510646343E0,-2.790000200E0,1.328592300E-1
1.143652458E1,1.240369797E0,-2.715615273E0,1.588468552E-1
1.145535208E1,-1.648807526E-2,-1.985548735E0,-2.998509407E-1
1.147417958E1,-1.331243515E0,-9.221038818E-1,-8.736987114E-1
1.149300708E1,-2.024078846E0,-3.206224442E-1,-9.800696373E-1
1.151183458E1,-2.107156754E0,3.916263580E-2,-2.988719940E-1
1.153066208E1,-1.515191555E0,2.212660313E-1,1.410248756E0
1.154948958E1,-5.378746986E-1,3.553421497E-1,2.519795895E0
1.156831708E1,5.181980133E-2,4.229860306E-1,2.262021542E0
1.158714458E1,-1.644401550E-1,7.718696594E-1,1.754708767E0
1.160597208E1,-6.606178284E-1,1.444096327E0,1.268643856E0
1.162479958E1,-5.819330215E-1,1.751558781E0,8.886857033E-1
1.164362708E1,1.065111160E-1,1.365903378E0,4.527711868E-2
1.166245458E1,1.340979576E0,1.222624302E0,-6.783304214E-1
1.168128213E1,2.140592575E0,1.643374920E0,-7.587304115E-1
1.170010963E1,2.943392038E0,1.701344252E0,-5.095624924E-1
1.171893713E1,3.429002047E0,1.528693438E0,1.395831108E-1
1.173776463E1,2.916989565E0,9.031214714E-1,3.563966751E-1
1.175657900E1,1.149241447E0,6.643037796E-1,3.708038330E-1
1.177541963E1,-7.940464020E-1,2.852883339E-1,1.652951241E-1
1.179424713E1,-2.351727486E0,-3.645334244E-1,-3.414988518E-1
1.181307463E1,-3.143219948E0,-8.962843418E-1,-5.611071587E-1
1.183190213E1,-2.909804821E0,-1.243701935E0,-5.322766304E-1
1.185072968E1,-2.168984413E0,-1.236877441E0,1.772327423E-1
1.186955718E1,-1.811401844E0,-1.291546345E0,7.262630463E-1
1.188838468E1,-1.633277893E0,-1.803815842E0,8.345050812E-1
1.190721218E1,-1.595550537E0,-2.449088097E0,2.005472183E-1
1.192603968E1,-1.497023582E0,-3.014538527E0,-7.591047287E-1
1.194486718E1,-9.139308929E-1,-3.310947895E0,-1.786651611E0
1.196369473E1,1.145219803E-2,-2.218411207E0,-2.838932991E0
1.198252223E1,9.481439590E-1,-5.915882587E-1,-3.491837502E0
1.200134973E1,2.094061852E0,2.065606117E-1,-2.933862686E0
1.202017723E1,2.919609070E0,1.538009644E-1,-2.057976723E0
1.203900473E1,2.734537601E0,4.303755760E-1,-5.124897957E-1
1.205783223E1,1.890031815E0,2.147793770E-1,6.409840584E-1
1.207665978E1,5.087823868E-1,-6.828010082E-1,7.242431641E-1
1.209547416E1,-1.583295822E0,-6.628277302E-1,2.483634949E-1
1.211431478E1,-2.759128571E0,-1.472713947E-1,4.194951057E-1
1.213314228E1,-2.544360161E0,5.111193657E-1,4.974789619E-1
1.215196978E1,-1.888430595E0,1.156358719E0,7.221565247E-1
1.217079734E1,-1.969274521E0,1.193408012E0,9.501338005E-1
1.218962484E1,-2.162139893E0,6.838803291E-1,2.340807915E-1
1.220845234E1,-1.986025333E0,7.005066872E-1,-9.432520866E-1
1.222727984E1,-1.129570961E0,5.717382431E-1,-1.840948582E0
1.224610734E1,3.667879105E-1,7.405042648E-2,-2.022788048E0
1.226493489E1,1.812299728E0,-5.010032654E-2,-1.611320019E0
1.228376239E1,2.159571886E0,-3.398084641E-2,-8.338065147E-1
1.230258989E1,1.691663265E0,-3.102855682E-1,-6.613702774E-1
1.232140426E1,2.271308899E-1,-2.638030052E-1,-1.010429859E0
1.234024494E1,-1.523897171E0,1.944031715E-1,-1.257000446E0
1.235907244E1,-2.549281120E0,3.926053047E-1,-1.272388935E0
1.237789994E1,-2.266716480E0,3.483533859E-1,-7.888960838E-1
1.239672744E1,-1.314076424E0,2.164487839E-1,-1.573576927E-1
1.241555494E1,-8.399119377E-1,-2.083258629E-1,2.065167427E-1
1.243438249E1,-7.725758553E-1,-9.145710468E-1,7.626199722E-2
1.245320999E1,-7.957701683E-1,-1.408497810E0,-4.238448143E-1
1.247203749E1,-9.175744057E-1,-7.774677277E-1,-5.388031006E-1
1.249086499E1,-7.104349136E-1,-3.740005493E-1,-3.258070946E-1
1.250969249E1,-4.617476463E-1,-2.132744789E-1,-2.263975143E-1
1.252852004E1,-4.342241287E-1,-1.996531487E-1,-3.933267593E-1
1.254734754E1,-7.345914841E-1,-3.832054138E-2,-6.229033470E-1
1.256617504E1,-5.107207298E-1,2.056632042E-1,-2.696676254E-1
1.258500254E1,3.944306374E-1,-2.871665955E-1,2.905950546E-1
1.260383010E1,1.095517159E0,-1.034656048E0,9.007234573E-1
1.262265760E1,1.155145168E0,-1.510057211E0,1.149436474E0
1.264148510E1,1.008339405E0,-1.691887379E0,1.296877861E0
1.266031265E1,1.004978657E0,-1.659603119E0,1.307350159E0
1.267914015E1,7.125554085E-1,-1.815688133E0,1.048268795E0
1.269796765E1,5.804305077E-1,-1.584296942E0,9.749155045E-1
1.271679515E1,5.884633064E-1,-6.699776649E-1,1.221603870E0
1.273562265E1,5.385608673E-1,2.354488373E-1,1.576414108E0
1.275445020E1,4.683909416E-1,5.942463875E-1,2.142630100E0
1.277327770E1,-3.281593323E-2,6.582913399E-1,2.278649330E0
1.279210520E1,-1.252398014E0,7.786078453E-1,1.797112465E0
1.281093275E1,-2.441521168E0,7.868113518E-1,1.239310265E0
1.282976025E1,-3.145923615E0,8.511714935E-1,5.257496834E-1
1.284858775E1,-2.954601765E0,9.569387436E-1,3.397693634E-1
1.286741525E1,-2.461120129E0,5.840835571E-1,1.315293312E-1
1.288624280E1,-2.135161877E0,-2.693319321E-2,4.810333252E-3
1.290507030E1,-1.725338459E0,-8.784766197E-1,-3.476257324E-1
1.292389781E1,-8.388204575E-1,-1.516705990E0,-8.295125961E-1
1.294272536E1,5.017161369E-1,-1.470691204E0,-9.898104668E-1
1.296155286E1,1.449499607E0,-4.917964935E-1,-7.921428680E-1
1.298038036E1,2.028685331E0,1.460251808E-1,-1.474337578E-1
1.299920791E1,2.061829090E0,1.501646042E-1,1.610622406E-1
1.301803541E1,1.604580402E0,6.428670883E-2,1.005716324E-1
1.303686291E1,8.351960182E-1,8.522653580E-2,1.984643936E-2
1.305569041E1,4.596281052E-2,2.681889534E-1,2.347936630E-1
1.307451796E1,-2.604312897E-1,4.669413567E-1,6.709871292E-1
1.309334546E1,-1.177430153E-1,4.631261826E-1,1.001467705E0
1.311217296E1,-8.974075317E-3,4.418420792E-1,1.210850716E0
1.313100051E1,1.027288437E-1,8.908987045E-2,1.157679081E0
1.314982801E1,2.621903419E-1,-3.972811699E-1,8.979377747E-1
1.316865551E1,8.092355728E-2,-3.454036713E-1,3.877577782E-1
1.318748301E1,-1.970887184E-1,-2.406454086E-2,-9.027385712E-2
1.320631056E1,-2.378010750E-1,1.962270737E-1,-7.631630898E-1
1.322513807E1,3.448963165E-2,2.211666107E-1,-8.256411552E-1
1.324396557E1,8.699655533E-1,-2.384169102E-1,-6.871614456E-1
1.326279312E1,1.273362160E0,-5.385031700E-1,-7.322864532E-1
1.328162062E1,1.031644821E0,5.547761917E-3,-9.203786850E-1
1.330044812E1,5.449886322E-1,4.168510437E-1,-1.149769783E0
1.331927567E1,6.088256836E-3,9.919769764E-1,-1.277905464E0
1.333810317E1,-5.686054230E-1,1.433253527E0,-1.567438602E0
1.335693067E1,-6.662778854E-1,1.253771305E0,-1.993840218E0
1.337575822E1,-1.370615959E-1,1.193235874E0,-1.749714375E0
1.339458572E1,8.076882362E-1,1.356326103E0,-1.188202858E0
1.341341322E1,1.609154701E0,1.081092119E0,-6.985921860E-1
1.343224077E1,2.173025131E0,6.730759144E-1,-4.108510017E-1
1.345106827E1,1.762363434E0,7.946460247E-1,-7.673940659E-1
1.346989577E1,8.763375282E-1,1.040812254E0,-1.528081417E0
1.348872333E1,5.729393959E-1,1.872276068E0,-1.942685604E0
1.350755083E1,1.048149109E0,2.552145243E0,-1.503217220E0
1.352637838E1,1.929853916E0,2.720524311E0,-7.052326202E-1
1.354520588E1,1.898235798E0,2.974160433E0,-2.891798019E-1
1.356403338E1,1.194791317E0,3.071939468E0,-1.859030724E-1
1.358286093E1,4.552388191E-1,2.422053814E0,-1.603035927E-1
1.360168843E1,-1.303911209E-2,1.556003571E0,3.051047325E-1
1.362051593E1,-3.118391037E-1,7.766251564E-1,9.726476669E-1
1.363934348E1,-4.120450020E-1,1.985597610E-1,1.514081955E0
1.365817098E1,-6.644868851E-1,2.375249863E-1,1.896500587E0
1.367699853E1,-1.104076385E0,5.565361977E-1,1.837198734E0
1.369582603E1,-1.523204327E0,8.434343338E-1,1.199289799E0
1.371465353E1,-1.474955559E0,8.144311905E-1,7.411875725E-1
1.373348109E1,-7.799696922E-1,7.384147644E-1,3.439311981E-1
1.375230859E1,-2.047605515E-1,7.650790215E-1,2.048687935E-1
1.377113614E1,1.512737274E-1,3.556790352E-1,2.157850266E-1
1.378996364E1,3.562994003E-1,-1.816167831E-1,1.797676086E-1
1.380879114E1,3.622055054E-1,-6.497225761E-1,3.892235756E-1
1.382761869E1,4.947271347E-1,-1.200024605E0,6.224379539E-1
1.384644619E1,5.720911026E-1,-1.334638596E0,4.555964470E-1
1.386527369E1,5.099525452E-1,-1.283959389E0,1.659746170E-1
1.388410124E1,6.033492088E-1,-1.377230167E0,3.308782578E-1
1.390292874E1,8.873977661E-1,-1.554026365E0,6.562318802E-1
1.392175629E1,8.613648415E-1,-1.560225725E0,5.623135567E-1
1.394058379E1,-9.856700897E-3,-1.405597091E0,-1.249980927E-2
1.395941135E1,-8.734054565E-1,-1.353400230E0,-4.531092644E-1
1.397823885E1,-1.535734653E0,-1.281683207E0,-6.448388100E-1
1.399706635E1,-1.729992867E0,-1.152140379E0,-3.017497063E-1
1.401589390E1,-1.432713985E0,-1.133526325E0,1.518568993E-1
1.403472140E1,-1.225851059E0,-1.289157629E0,3.238201141E-3
1.405354895E1,-1.427600384E0,-7.678294182E-1,-3.601937294E-1
1.407237645E1,-1.553675652E0,-2.740416527E-1,-6.092405319E-1
1.409120400E1,-1.127000332E0,-2.165732384E-1,-9.434685707E-1
1.411003150E1,-2.665061951E-1,-4.640183449E-1,-1.106184006E0
1.412885900E1,6.141448021E-1,-5.305595398E-1,-1.327260971E0
1.414768656E1,1.075947762E0,1.495914459E-1,-1.368306160E0
1.416651406E1,1.735622883E0,1.293101072E0,-5.409817696E-1
1.418532848E1,3.531680107E0,1.568834305E0,4.001226425E-1
1.420416911E1,4.827725410E0,1.387026072E0,1.560058594E0
1.422299661E1,4.627569675E0,1.422686815E0,2.486105442E0
1.424182416E1,3.445014954E0,1.423337936E0,2.433409691E0
1.426065166E1,1.881505489E0,1.631320953E0,2.408389091E0
1.427947921E1,9.073352814E-2,1.731768608E0,1.943545341E0
1.429830671E1,-1.099331856E0,1.344459295E0,2.093536377E0
1.431713426E1,-1.486750603E0,1.077864408E0,2.243422985E0
1.433596176E1,-1.411528587E0,7.748692036E-1,2.038257599E0
1.435478932E1,-1.347507477E0,3.954267502E-1,1.394789219E0
1.437361682E1,-8.954334259E-1,-1.600599289E-1,7.002067566E-1
1.439244437E1,-2.855358124E-1,-1.047164679E0,1.892762184E-1
1.441127187E1,6.521034241E-2,-1.903305531E0,-6.504921913E-1
1.443009937E1,2.167272568E-2,-2.609209538E0,-1.767238140E0
1.444892692E1,1.082515717E-1,-2.838035583E0,-2.905086756E0
1.446775442E1,9.127235413E-2,-1.984580755E0,-4.016558647E0
1.448658197E1,2.045855522E-1,-1.097852707E0,-3.961936474E0
1.450540947E1,9.413104057E-1,-1.228723049E0,-3.256931782E0
1.452423702E1,3.200941086E-1,-1.660780907E0,-3.043837547E0
1.454306452E1,-4.209084511E-1,-1.952956438E0,-3.038527489E0
1.456189208E1,-1.190092564E0,-2.044351101E0,-2.963542461E0
1.458071963E1,-1.788252354E0,-1.420454502E0,-2.888286829E0
1.459954713E1,-1.988451958E0,-2.024116516E-1,-1.881807089E0
1.461837468E1,-1.275472641E0,9.787554741E-1,2.645821571E-1
1.463720218E1,-4.099535942E-1,1.121193886E0,1.162601948E0
1.465602973E1,-9.481954575E-2,1.658760548E0,1.974198818E0
1.467485723E1,-2.034230232E-1,2.327740192E0,2.248213053E0
1.469368473E1,-1.607422829E-1,2.593955994E0,2.935204983E0
1.471251228E1,3.273983002E-1,1.595142365E0,4.085648537E0
1.473133984E1,5.422782898E-1,9.471139908E-1,5.099931240E0
1.475016734E1,-2.493476868E-2,2.277049065E0,4.163537979E0
1.476899489E1,-1.293946266E0,3.182774067E0,3.177040815E0
1.478782239E1,-2.928668022E0,2.460164070E0,2.385700226E0
1.480664994E1,-4.418838501E0,1.124014378E0,1.866304398E0
1.482547744E1,-4.459357738E0,3.422880173E-1,1.728422165E0
1.484430499E1,-3.698106289E0,-5.646944046E-2,6.045570374E-1
1.486313249E1,-2.857726574E0,2.543644905E-1,-4.448990822E-1
1.488196004E1,-1.775186539E0,-7.301712036E-2,-7.592773438E-1
1.490078760E1,-4.404654503E-1,-7.328977585E-1,-5.552940369E-1
1.491961510E1,4.320859909E-2,-1.569589138E0,-1.561103344E0
1.493844265E1,-8.073472977E-2,-2.286767483E0,-3.137276649E0
1.495727015E1,1.003503799E-1,-2.314893723E0,-4.712095261E0
1.497609770E1,7.876777649E-1,-1.233851910E0,-5.330720901E0
1.499492525E1,1.157445431E0,4.150147438E-1,-4.997917652E0
1.501375275E1,1.025941849E0,1.309483051E0,-4.695543766E0
1.503258031E1,6.743335724E-2,1.399751663E0,-4.969805241E0
1.505140780E1,-6.800432205E-1,1.196686268E0,-5.078366280E0
1.507023536E1,-7.563543320E-2,2.474036217E-1,-4.147376060E0
1.508904978E1,1.196988106E0,-8.620414734E-1,-2.161194563E0
1.510789041E1,1.343825340E0,-2.259928226E0,-8.367323875E-1
1.512671796E1,3.770060539E-1,-2.949634314E0,-2.392916679E-1
1.514554546E1,-8.454852104E-1,-2.591834784E0,3.029727936E-2
1.516437301E1,-1.134163857E0,-2.594869614E0,1.367855072E-1
1.518320051E1,-5.748634338E-1,-2.218384743E0,3.288102150E-1
1.520202806E1,8.448886871E-2,-1.421982288E0,2.719221115E-1
1.522085562E1,2.429776192E-1,-8.774199486E-1,-2.201890945E-1
1.523968312E1,-1.245903969E-1,-1.240568161E-1,1.170873642E-2
1.525851067E1,-1.006183147E0,5.360846519E-1,6.337094307E-1
1.527733817E1,-1.750631809E0,6.284074783E-1,1.425255775E0
1.529616572E1,-2.709408283E0,8.157401085E-1,1.790909767E0
1.531499327E1,-3.134173393E0,6.105995178E-1,1.847988605E0
1.533382077E1,-2.948160648E0,3.903841972E-1,1.776763678E0
1.535264833E1,-2.635881424E0,3.594150543E-1,1.932921410E0
1.537147583E1,-1.607872963E0,-6.204605103E-2,1.736132622E0
1.539030338E1,-5.260939598E-1,3.054738045E-1,1.525377989E0
1.540913093E1,8.913612366E-2,1.112810135E0,1.815690517E0
1.542795843E1,4.008722305E-1,1.426763535E0,2.419853449E0
1.544678598E1,3.457393646E-1,1.015010357E0,2.564403057E0
1.546561353E1,-7.138290405E-1,3.665690422E-1,2.244365692E0
1.548442791E1,-2.306995392E0,-4.063057899E-1,1.697675705E0
1.550326859E1,-3.410403728E0,-1.139514208E0,4.863672256E-1
1.552209609E1,-3.148417950E0,-1.480181217E0,-6.545147896E-1
1.554091051E1,-1.450779438E0,-1.163234711E0,-8.357791901E-1
1.555975119E1,-1.290683746E-1,-7.393579483E-1,-4.296097755E-1
1.557857869E1,3.656835556E-1,-8.298006058E-1,1.040272713E-1
1.559740624E1,7.522449493E-1,-1.041323185E0,2.606472969E-1
1.561623379E1,1.412758350E0,-1.496340275E0,-1.906032562E-1
1.563506129E1,1.472003937E0,-1.344782352E0,-8.615088463E-1
1.565388885E1,1.119414806E0,-1.024285078E0,-8.737630844E-1
1.567271640E1,1.282957554E0,-8.502743244E-1,-3.512048721E-1
1.569154390E1,1.551598072E0,-4.813737869E-1,2.043194771E-1
1.571037145E1,1.120499134E0,3.410434723E-1,2.167925835E-1
1.572919895E1,2.439589500E-1,8.141574860E-1,2.475762367E-1
1.574802650E1,5.223302841E-1,2.415201664E-1,1.741232872E-1
1.576685406E1,8.938498497E-1,-5.334906578E-1,2.264261246E-2
1.578568161E1,9.528951645E-1,-9.606962204E-1,-3.997974396E-1
1.580450911E1,6.574950218E-1,-5.392227173E-1,-1.067219734E0
1.582333666E1,4.168720245E-1,4.444303513E-1,-1.147343159E0
1.584216416E1,3.925027847E-1,1.007266760E0,-1.306699753E0
1.586099171E1,8.864021301E-1,1.379244089E0,-1.010917187E0
1.587981926E1,1.637110233E0,1.391101122E0,-9.434461594E-1
1.589864676E1,2.019108295E0,1.227618694E0,-9.523143768E-1
1.591747432E1,1.755283356E0,1.216263771E0,-1.047353745E0
1.593630187E1,1.394038677E0,1.600206375E0,-6.591653824E-1
1.595512937E1,1.339202404E0,1.254351616E0,-4.789595604E-1
1.597395692E1,9.095230103E-1,1.375370026E0,-5.118918419E-1
1.599278447E1,4.989991188E-1,1.585350037E0,-6.054611206E-1
1.601161202E1,4.164109230E-1,1.376974583E0,-5.580515862E-1
1.603043952E1,1.027026176E0,1.330370903E0,1.852369308E-1
1.604926708E1,1.376609325E0,7.672982216E-1,7.822237015E-1
1.606809463E1,1.191314697E0,2.725186348E-1,8.265876770E-1
1.608692213E1,4.282808304E-1,4.199471474E-1,6.526188850E-1
1.610574968E1,-4.873876572E-1,7.803034782E-1,5.465774536E-1
1.612457723E1,-1.196981430E0,9.222068787E-1,1.048170090E0
1.614340473E1,-1.347821712E0,4.436087608E-1,1.625222683E0
1.616223228E1,-1.454604626E0,-2.682604790E-1,1.949568272E0
1.618105984E1,-1.828881741E0,-3.758568764E-1,1.712220192E0
1.619988739E1,-2.082125187E0,-2.447695732E-1,1.445469856E0
1.621871489E1,-1.278421402E0,-6.092367172E-1,1.054696083E0
1.623754244E1,-8.544731140E-2,-4.358198643E-1,1.007293701E0
1.625636999E1,5.785946846E-1,3.598217964E-1,1.183571339E0
1.627519754E1,6.477322578E-1,9.721045494E-1,1.119536877E0
1.629402504E1,6.545295715E-1,1.313104630E0,1.052189827E0
1.631285260E1,7.483963966E-1,1.126867294E0,8.822994232E-1
1.633168015E1,8.601088524E-1,5.844295025E-1,6.501560211E-1
1.635050765E1,6.804594994E-1,-2.832307816E-1,5.910897255E-1
1.636933520E1,2.105050087E-1,-1.238606215E0,5.608749390E-1
1.638816275E1,6.444120407E-2,-1.876904249E0,2.967696190E-1
1.640699030E1,1.017966270E-1,-2.242691040E0,2.633857727E-1
1.642581780E1,-1.430320740E-2,-2.022974968E0,-9.494304657E-3
1.644464536E1,-5.130419731E-1,-1.029421806E0,-6.358213425E-1
1.646347291E1,-1.122459412E0,4.124002457E-1,-9.677422047E-1
1.648230046E1,-6.148638725E-1,1.339469194E0,-5.828709602E-1
1.650112796E1,6.950945854E-1,1.145447731E0,1.369233131E-1
1.651995551E1,1.346123219E0,5.630860329E-1,7.763075829E-1
1.653878306E1,9.954123497E-1,-1.258306503E-1,1.073668957E0
1.655761062E1,1.721658707E-1,-5.751194954E-1,7.194242477E-1
1.657643812E1,-6.303477287E-1,-6.297013760E-1,4.776954651E-2
1.659526567E1,-8.238191605E-1,-3.685114384E-1,-7.222781181E-1
1.661409322E1,-3.078851700E-1,-2.370443344E-1,-6.960964203E-1
1.663292077E1,6.999540329E-1,-3.668704033E-1,-8.335638046E-2
1.665174827E1,2.013443947E0,-8.581976891E-1,2.497367859E-1
1.667057583E1,2.940639019E0,-6.259865761E-1,6.449289322E-1
1.668940338E1,3.187102556E0,3.636026382E-1,9.257488251E-1
1.670823093E1,2.961756229E0,1.072335243E0,7.074279785E-1
1.672705843E1,2.370681763E0,1.558051586E0,6.613631248E-1
1.674588598E1,1.723484039E0,1.916078568E0,1.297490597E0
1.676471353E1,1.058344364E0,1.848762035E0,1.931590557E0
1.678354109E1,1.957225800E-2,1.448660851E0,1.985112667E0
1.680236859E1,-1.357669830E0,8.731431961E-1,2.024786949E0
1.682119614E1,-2.665695190E0,4.643769264E-1,1.847094536E0
1.684002369E1,-3.209680080E0,-2.288076878E-1,1.607645512E0
1.685885124E1,-2.623281479E0,-1.041324139E0,1.219209671E0
1.687767879E1,-1.603711605E0,-1.688605785E0,7.049221992E-1
1.689650629E1,-5.740370750E-1,-2.082587719E0,1.554670334E-1
1.691533385E1,3.532233238E-1,-2.432390451E0,-1.074445486E0
1.693416140E1,8.229064941E-1,-2.458582640E0,-2.496784210E0
1.695298890E1,1.079840183E0,-1.934549570E0,-3.648528814E0
1.697181645E1,1.384179592E0,-1.494588614E0,-4.889743805E0
1.699064400E1,1.908328533E0,-1.034609079E0,-5.441318035E0
1.700947156E1,2.853503466E0,-9.132091999E-1,-4.891980648E0
1.702829911E1,3.773688078E0,-1.039025784E0,-3.723025560E0
1.704712661E1,3.832368135E0,-1.713564634E0,-3.055877686E0
1.706595416E1,2.744519472E0,-1.920376778E0,-2.297289610E0
1.708478171E1,1.281702518E0,-1.354042053E0,-1.251671314E0
1.710360926E1,-4.434881210E-1,-5.902161598E-1,-7.651388645E-1
1.712242369E1,-2.077543736E0,5.683259964E-1,-7.225482464E-1
1.714126432E1,-2.950843811E0,2.320952892E0,2.473952770E-1
1.716009187E1,-3.051181793E0,3.827308178E0,1.857373476E0
1.717890629E1,-2.660535812E0,5.006858826E0,2.994133234E0
1.719774697E1,-2.278955460E0,5.088349342E0,3.581690550E0
1.721657447E1,-9.841299057E-1,2.768114090E0,3.561963320E0
1.723538895E1,8.630833626E-1,8.532452583E-1,3.738504648E0
1.725422958E1,1.352996349E0,4.049558640E-1,3.114287853E0
1.727305713E1,-2.810950279E-1,1.351475239E0,1.783121586E0
1.729188468E1,-1.734836578E0,1.361721039E0,5.519108772E-1
1.731071223E1,-1.926254272E0,7.270631790E-1,-3.496384621E-2
1.732953973E1,-1.950925827E0,6.168732643E-1,9.139800072E-2
1.734836728E1,-1.836348534E0,3.020882607E-1,-4.194679260E-1
1.736719484E1,-1.909275532E0,-4.662179947E-2,-1.777996540E0
1.738602239E1,-2.027062416E0,-1.341462135E-1,-2.616005659E0
1.740484994E1,-1.324440479E0,-2.296290398E-1,-2.504424095E0
1.742367749E1,-1.305198669E-1,-4.624500275E-1,-1.413217783E0
1.744250504E1,7.976746559E-1,-8.006806374E-1,-3.036873341E-1
1.746133254E1,7.287468910E-1,-1.641133308E0,1.746752262E-1
1.748016010E1,3.653383255E-2,-2.175100803E0,-3.086187840E-1
1.749898765E1,-8.201122284E-1,-1.956884384E0,-1.347723961E0
1.751781520E1,-1.791522980E0,-1.051765442E0,-2.384208441E0
1.753664275E1,-2.446292400E0,-4.518318176E-1,-2.874656439E0
1.755547030E1,-2.242512703E0,-1.642594337E-1,-3.199914455E0
1.757429780E1,-1.780646801E0,5.788927078E-1,-3.569542646E0
1.759312536E1,-1.215416431E0,1.715664387E0,-4.009147167E0
1.761195291E1,-2.277226448E-1,2.809173107E0,-3.765675545E0
1.763076734E1,1.008019447E0,2.157859325E0,-1.792788744E0
1.764960801E1,2.038829088E0,4.447460175E-1,1.222712994E0
1.766843556E1,1.970830679E0,-1.489434719E0,3.086579800E0
1.768724999E1,-7.149596214E-1,-2.234033585E0,3.274323463E0
1.770609062E1,-4.783261299E0,-1.394752026E0,2.666391134E0
1.772491817E1,-7.455608368E0,-1.365265846E-1,2.102757215E0
1.774373265E1,-7.719635487E0,1.704711914E0,1.541351318E0
1.776257327E1,-7.686085224E0,3.317785740E0,2.525402069E0
1.778140083E1,-7.613838673E0,4.043584347E0,2.843647003E0
1.780021525E1,-7.761289597E0,6.364541531E0,2.029628277E0
1.781905593E1,-9.130793571E0,7.823342323E0,1.061696053E0
1.783788348E1,-9.502731323E0,7.013638496E0,2.836546898E-1
1.785669791E1,-9.195100784E0,5.559895039E0,-1.642712116E0
1.787553859E1,-8.513479233E0,4.212486267E0,-3.452053785E0
1.789436614E1,-6.505526066E0,3.808716774E0,-3.229259014E0
1.791319364E1,-4.957235813E0,4.163860321E0,-1.820632458E0
1.793202119E1,-4.099931240E0,3.867001295E0,-8.653693199E-1
1.795084874E1,-3.031299114E0,2.172308445E0,-1.060925484E0
1.796966317E1,-9.133152962E-1,1.094403744E0,-3.032070875E0
1.798850385E1,-1.096502304E0,3.392198563E0,-2.533767223E0
1.800733140E1,-1.335952282E0,4.595711231E0,-2.490894318E0
1.802615895E1,-8.775615692E-1,4.785973072E0,-3.176234245E0
1.804498650E1,-6.844806671E-1,5.797351360E0,-4.016540527E0
1.806381406E1,3.261022568E-1,6.476996422E0,-4.944485664E0
1.808262848E1,1.601038933E0,7.568968296E0,-5.557727337E0
1.810146916E1,2.939185619E0,7.481585503E0,-5.611659527E0
1.812029671E1,3.927734613E0,6.677088737E0,-4.529763222E0
1.813911114E1,5.276555538E0,5.106855392E0,-3.568910122E0
1.815795182E1,6.859044075E0,3.028212070E0,-3.560659647E0
1.817677932E1,7.587304115E0,1.671494484E0,-3.590315580E0
1.819560687E1,6.906770706E0,1.093677044E0,-4.310311794E0
1.821443442E1,5.094614029E0,1.685710907E0,-5.989516735E0
1.823326197E1,3.116522074E0,2.316210270E0,-7.693177700E0
1.825208952E1,3.389220238E0,3.046566963E0,-8.617229462E0
1.827091708E1,4.938385963E0,4.466814041E0,-8.339035034E0
1.828974463E1,7.124323845E0,5.175099373E0,-7.521795273E0
1.830855906E1,1.062760735E1,5.190116882E0,-5.693581104E0
1.832739973E1,1.442954159E1,6.484070778E0,-4.762665749E0
1.834622728E1,1.894695282E1,8.483571053E0,-5.252485752E0
1.836504171E1,2.091588974E1,1.161784649E1,-5.007423401E0
1.838388239E1,1.785797501E1,1.516285896E1,-2.009830952E0
1.840270994E1,1.207388306E1,1.624499321E1,-2.541155815E-1
1.842152442E1,3.634595394E0,1.603446960E1,-2.538938522E0
1.844036510E1,-2.627305984E0,1.626713753E1,-4.991007805E0
1.845919265E1,-3.850873947E0,2.147955322E1,-2.318517685E0
1.847800708E1,-4.682905197E0,2.461086082E1,2.186089993E0
1.849684775E1,-5.830987453E0,2.291880417E1,4.173180103E0
1.851567531E1,-6.803143501E0,2.189392662E1,4.804039955E0
1.853448978E1,-1.081994057E1,2.073473358E1,3.847448111E0
1.855333046E1,-1.385598755E1,1.681135559E1,2.163419008E0
1.857215801E1,-1.443160057E1,1.443045235E1,1.391936779E0
1.859097249E1,-1.309130573E1,1.283516979E1,2.262330055E0
1.860981317E1,-1.082375145E1,1.259828854E1,3.919843435E0
1.862864072E1,-1.004752731E1,1.035657215E1,2.981934547E0
1.864745515E1,-8.775987625E0,7.224534035E0,2.307645559E0
1.866629583E1,-7.603100777E0,4.406292915E0,9.242975712E-1
1.868512338E1,-6.825497627E0,2.170960426E0,-1.042381287E0
1.870393786E1,-5.265224457E0,4.777441025E-1,-1.946323395E0
1.872277853E1,-3.500389099E0,-9.593234062E-1,-2.351871014E0
1.874160609E1,-1.681125283E0,-1.572451591E0,-2.544293404E0
1.876042051E1,-2.212798595E-1,-2.312334538E0,-3.663439989E0
1.877926119E1,1.077695847E0,-2.590088844E0,-4.038181782E0
1.879808874E1,2.471670866E0,-2.811330318E0,-4.759687424E0
1.881691629E1,2.855985403E0,-3.297955036E0,-5.002271652E0
1.883574385E1,1.257682323E0,-4.811780930E0,-5.208057880E0
1.885457145E1,-1.273371458E0,-6.381187439E0,-5.057671547E0
1.887338588E1,-1.729000092E0,-6.577466965E0,-3.679520130E0
1.889222656E1,-1.057920575E0,-5.609189510E0,-1.788457632E0
1.891105411E1,-9.105867147E-1,-4.340332985E0,-1.081418991E0
1.892986859E1,-5.848664045E-1,-2.075970173E0,-5.199337006E-2
1.894870926E1,-5.354186296E-1,3.194732666E-1,9.063110352E-1
1.896753682E1,-1.497134566E0,9.268569946E-1,1.873298168E0
1.898635124E1,-3.056831360E0,-1.765100956E0,2.666580200E0
1.900519192E1,-6.500041485E0,-2.615585804E0,2.858873844E0
1.902401947E1,-1.083660984E1,-1.995192528E0,4.137169361E0
1.904283395E1,-1.045199203E1,-1.346608639E0,6.658115864E0
1.906167463E1,-7.854264736E0,1.708409786E0,8.591563225E0
1.908050218E1,-4.995229721E0,5.858182907E0,1.017340088E1
1.909931666E1,-1.535940647E0,8.113473892E0,1.086307144E1
1.911815734E1,2.697122097E-1,8.569432259E0,1.037678623E1
1.913698489E1,9.792065620E-2,8.021173477E0,8.389575958E0
1.915581244E1,-5.547080040E-1,7.472841263E0,6.495616436E0
1.917463999E1,-7.407169342E-1,7.191925049E0,5.283465862E0
1.919346760E1,2.139325142E-1,6.742188454E0,4.350046158E0
1.921228202E1,1.562212944E0,6.076582909E0,3.442476749E0
1.923112270E1,2.062766552E0,5.463880539E0,2.335812092E0
1.924995025E1,2.095097065E0,5.627016544E0,2.208132744E-1
1.926876468E1,4.007931232E0,6.576268196E0,-1.173538208E0
1.928760536E1,4.902237415E0,6.838992119E0,-1.885407925E0
1.930643291E1,4.581860065E0,5.994328499E0,-4.246643066E0
1.932524734E1,4.619213104E0,4.596328259E0,-5.351965427E0
1.934408801E1,4.846129894E0,3.025243759E0,-5.902237892E0
1.936291556E1,4.687748432E0,1.871284485E0,-5.898340702E0
1.938174312E1,3.673238039E0,1.578989267E0,-5.470228195E0
1.940057067E1,3.451065540E0,6.372454166E-1,-5.508415222E0
1.941939822E1,4.069123745E0,-5.228710175E-1,-5.245253563E0
1.943822577E1,5.301543713E0,-1.121027946E0,-4.912929535E0
1.945705338E1,5.115263939E0,-7.117891312E-1,-3.567296028E0
1.947588093E1,3.521094799E0,-1.423091173E0,-4.061571121E0
1.949470848E1,3.698276043E0,-2.619372845E0,-4.963294506E0
1.951353603E1,3.736167908E0,-2.364725113E0,-3.978788376E0
1.953236359E1,1.828786135E0,-1.615893126E0,-3.961976528E0
1.955119114E1,1.143398523E0,-2.324784994E0,-5.674427032E0
1.957001869E1,1.453938246E0,-2.562496424E0,-6.108329296E0
1.958884624E1,1.243352175E0,-8.203392029E-1,-5.462574482E0
1.960766067E1,1.842649937E0,8.361136913E-1,-3.962713718E0
1.962650135E1,2.972349167E0,9.186997414E-1,-2.479828835E0
1.964532890E1,4.599346161E0,6.803261042E-1,-1.965912342E0
1.966415645E1,4.927897930E0,3.927158117E-1,-1.240183353E0
1.968298400E1,4.809253693E0,-1.508272886E-1,-4.020452499E-1
1.970181156E1,3.914407015E0,1.122394800E-1,-9.819889069E-1
1.972062603E1,6.967334747E-1,1.469182014E0,-2.933943748E0
1.973946671E1,-3.821773052E0,2.567672729E0,-4.277774811E0
1.975829426E1,-7.196913242E0,4.023308277E0,-6.449229240E0
1.977712182E1,-6.294815063E0,3.974366188E0,-7.298120022E0
1.979594937E1,-1.709762096E0,3.365284920E0,-5.100750446E0
1.981477692E1,3.182870388E0,3.618375540E0,-1.363126755E0
1.983359135E1,5.747213364E0,4.247068882E0,9.359107018E-1
1.985243202E1,4.364004135E0,3.469589233E0,1.382429123E0
1.987125958E1,5.775256157E-1,4.441627026E0,6.698586941E-1
1.989007406E1,-4.113847733E0,4.413002968E0,-8.624475002E-1
1.990891473E1,-7.305331230E0,2.294218063E0,-6.970964670E-1
1.992774228E1,-6.631428719E0,1.627665520E0,-1.131781340E-1
1.994655671E1,-4.222476006E0,1.723407269E0,1.607506275E0
1.996539739E1,-2.044638157E0,8.912153244E-1,2.313475609E0
1.998422494E1,-1.209982872E0,6.430311203E-1,2.694932461E0
2.000303942E1,-6.865959167E-1,1.737865448E0,3.717828512E0
2.002188010E1,1.716547251E0,1.819467545E0,4.936937332E0
2.004070765E1,1.249568939E0,3.757205963E0,5.025239944E0
2.005952208E1,-4.729310989E0,7.110421181E0,1.842123270E0
2.007836275E1,-8.826554298E0,5.612982750E0,-1.088401318E0
2.009719036E1,-8.144140244E0,3.975294113E0,-1.887400389E0
2.011600478E1,-6.632333279E0,1.929506302E0,-4.027425766E0
2.013484546E1,-3.829068661E0,-7.573013306E-1,-5.631983757E0
2.015367301E1,-2.859439850E-1,-1.860309124E0,-5.647578239E0
2.017248744E1,1.555179834E0,-6.584730148E-1,-5.527066231E0
2.019132812E1,2.206678391E0,9.160814285E-1,-5.750581264E0
2.021015572E1,1.567514777E0,1.621213913E0,-5.605400085E0
2.022897015E1,-3.288373947E-1,1.036114693E0,-5.978267670E0
2.024781083E1,-2.100844860E0,-1.397806168E0,-5.381606102E0
2.026663838E1,-3.726644516E0,-3.175820351E0,-3.753767729E0
2.028545281E1,-4.205440044E0,-2.784687042E0,-2.327936888E-1
2.030429348E1,-2.685048580E0,-8.660612106E-1,3.008978844E0
2.032312103E1,-1.868391991E0,5.632467270E-1,4.922058105E0
2.034193551E1,-3.051213980E0,2.136405945E0,5.448052406E0
2.036077619E1,-4.028828621E0,4.180995941E0,5.582422733E0
2.037960374E1,-4.936411858E0,6.495044708E0,4.778115273E0
2.039841817E1,-8.463603973E0,7.546131611E0,1.891144991E0
2.041725885E1,-1.130971909E1,7.311849117E0,-3.101887703E-1
2.043608640E1,-9.596984863E0,5.833582401E0,-1.677920818E-1
2.045490088E1,-7.928567410E0,3.420058250E0,-6.132321358E-1
2.047374156E1,-7.396250248E0,4.083900928E0,-1.596750975E0
2.049256911E1,-6.402229309E0,5.354149342E0,-2.059287548E0
2.051138353E1,-4.616484642E0,6.213331223E0,-2.456219673E0
2.053022421E1,-3.334161758E0,6.234312057E0,-3.058504105E0
2.054905176E1,-2.057439804E0,5.531581402E0,-4.634708405E0
2.056787932E1,-9.581708908E-1,5.046368122E0,-5.657297611E0
2.058670692E1,-1.264553070E-1,4.926725388E0,-5.847994804E0
2.060553447E1,4.710397720E-1,4.939493656E0,-5.473077774E0
2.062436202E1,5.589118004E-1,4.823048592E0,-4.905931473E0
2.064318958E1,6.071619987E-1,4.593186855E0,-6.208100319E0
2.066201713E1,1.090083122E0,4.442903519E0,-7.933848381E0
2.068084468E1,1.676130295E0,4.836714268E0,-8.004628181E0
2.069967223E1,2.661005974E0,6.022130013E0,-7.389849663E0
2.071849984E1,3.807363987E0,6.819532871E0,-7.638514519E0
2.073731426E1,4.945390224E0,6.513951778E0,-7.858931065E0
2.075615494E1,5.964448452E0,6.828495026E0,-8.127811432E0
2.077498249E1,7.057443619E0,7.249720097E0,-7.330844879E0
2.079379692E1,8.014781952E0,7.346385002E0,-5.385437489E0
2.081263760E1,8.197935104E0,6.884849548E0,-3.306355953E0
2.083146520E1,8.188409805E0,6.159158230E0,-1.382094860E0
2.085029275E1,8.449056625E0,5.506212234E0,-9.676299095E-1
2.086912031E1,6.484279156E0,5.429561138E0,-2.198790789E0
2.088794786E1,2.788352489E0,5.252062798E0,-4.038801193E0
2.090676228E1,2.261705399E-1,5.969903946E0,-3.374331474E0
2.092560296E1,2.668559551E0,8.311588287E0,2.961618900E-1
2.094443051E1,8.810227394E0,9.661428452E0,3.655744314E0
2.096324499E1,7.734444141E0,1.096549702E1,3.543852806E0
2.098208567E1,5.917057037E0,1.025634480E1,6.668330193E0
2.100091322E1,4.989106178E0,1.037604809E1,3.953366756E0
2.101972765E1,2.281103134E-1,1.251609993E1,4.188848495E0
2.103856833E1,3.510742188E-1,1.060659981E1,4.634631634E0
2.105739593E1,1.714373112E0,1.043698406E1,4.198266029E0
2.107621036E1,1.867235661E0,1.373593521E1,5.747122765E0
2.109505103E1,2.117341518E0,1.382584381E1,6.038041115E0
2.111387859E1,-1.547117233E-1,1.436651325E1,3.372182131E0
2.113269306E1,-2.839871407E0,1.597960472E1,8.043015003E-1
2.115153374E1,-5.719962120E0,1.802491188E1,-4.415150881E-1
2.117036129E1,-8.255767822E0,1.902499962E1,-1.047461748E0
2.118917577E1,-1.100734138E1,1.753465462E1,-6.180770397E-1
2.120801645E1,-1.100957870E1,1.407193375E1,8.569540977E-1
2.122684400E1,-9.418250084E0,9.449190140E0,3.063791990E0
2.124565848E1,-6.829833984E0,5.560292244E0,4.164524078E0
2.126449916E1,-5.458660603E0,2.898219109E0,3.481594563E0
2.128332671E1,-4.321290493E0,-3.838357925E-1,1.554517984E0
2.130214119E1,-3.436560154E0,-2.669274330E0,-7.170519829E-1
2.132098187E1,-3.741986036E0,-3.390750408E0,-2.930681944E0
2.133980942E1,-3.928358078E0,-4.290947914E0,-5.802477837E0
2.135862385E1,-3.645054340E0,-4.867690086E0,-8.560029030E0
2.137746458E1,-2.708986998E0,-2.868062019E0,-9.491944313E0
2.139629213E1,-6.813392639E-1,-1.267922878E0,-8.791761398E0
2.141510656E1,7.285733223E-1,-2.220303535E0,-6.522918701E0
2.143394723E1,6.733880043E-1,-5.035249233E0,-4.468639374E0
2.145277484E1,-1.985740900E0,-6.427630901E0,-3.600706816E0
2.147158926E1,-3.469183207E0,-5.893630981E0,-1.560698748E0
2.149042994E1,-3.517821312E0,-5.401397228E0,-1.021866798E-1
2.150925754E1,-4.331427574E0,-3.158436775E0,7.099804878E-1
2.152807197E1,-6.037657738E0,3.157501221E-1,1.319674492E0
2.154691265E1,-7.122279167E0,1.469091415E0,1.569286823E0
2.156574025E1,-7.945795536E0,5.739583969E-1,2.621607780E0
2.158456781E1,-8.401006699E0,-4.351773262E-1,4.115405560E0
2.160339541E1,-9.271541595E0,6.845855713E-2,4.485754967E0
2.162222296E1,-8.510526657E0,1.770009041E0,5.196818352E0
2.164103744E1,-5.795578003E0,3.519685745E0,6.255058289E0
2.165987812E1,-3.708032370E0,5.674583435E0,6.474089622E0
2.167870567E1,-2.493364334E0,7.326271057E0,6.126029968E0
2.169753322E1,-1.241160631E0,7.876729965E0,5.710253239E0
2.171636083E1,-3.839583397E-1,8.298867226E0,4.574539661E0
2.173518838E1,3.125963211E-1,8.006464005E0,3.156119347E0
2.175401598E1,8.379189968E-1,7.150933266E0,2.324769497E0
2.177284353E1,1.687479496E0,6.282899857E0,1.832989216E0
2.179167114E1,2.362364769E0,5.562384129E0,2.087157249E0
2.181049869E1,2.619011879E0,5.287435055E0,2.585422993E0
2.182932624E1,2.677062988E0,5.695672035E0,2.789225101E0
2.184815379E1,2.722299099E0,6.720653057E0,2.317372322E0
2.186696827E1,2.528246880E0,6.398986816E0,1.916899204E0
2.188580895E1,1.944404125E0,5.229916573E0,1.135209560E0
2.190463650E1,3.772196770E-1,3.716959000E0,1.677975655E-1
2.192345098E1,-9.787302017E-1,2.434813499E0,-8.870282173E-1
2.194229166E1,-7.618160248E-1,2.166223049E0,-1.675560474E0
2.196111921E1,1.226243973E0,2.099519253E0,-1.806996107E0
2.197993364E1,4.147654533E0,1.624723554E0,-1.737421989E0
2.199877432E1,6.688091278E0,8.834639788E-1,-2.121140480E0
2.201760192E1,8.260718346E0,1.103596568E0,-2.610833168E0
2.203642947E1,9.139477730E0,1.654966354E0,-3.024396896E0
2.205525702E1,8.666622162E0,2.004302025E0,-3.902623415E0
2.207408458E1,7.464730740E0,2.406442642E0,-4.942538261E0
2.209291218E1,6.804636002E0,2.002282619E0,-5.000544548E0
2.211173973E1,6.272783279E0,4.574537277E-1,-3.745029449E0
2.213056728E1,4.547896385E0,-5.849335194E-1,-3.274959564E0
2.214938171E1,2.573239803E0,-6.531436443E-1,-3.286917448E0
2.216822244E1,1.238011837E0,-1.829795837E-1,-2.922454119E0
2.218704999E1,1.045030117E0,1.862752438E-1,-2.971266985E0
2.220587754E1,1.935411930E0,3.578195572E-1,-2.654315472E0
2.222470510E1,3.879392385E0,-7.553799152E-1,-1.010186195E0
2.224353270E1,4.532409668E0,-1.721959591E0,7.114267349E-2
2.226234713E1,2.951357365E0,-3.684353828E-1,-8.766002655E-1
2.228118781E1,8.950376511E-1,1.192018747E0,-1.928349972E0
2.230001541E1,-1.629704952E0,2.301984787E0,-3.207152367E0
2.231882984E1,-3.994418144E0,3.211876869E0,-4.940556049E0
2.233767051E1,-3.920443535E0,2.532666683E0,-4.894783497E0
2.235649806E1,-1.226814270E0,2.162615299E0,-3.550975084E0
2.237531254E1,8.005990982E-1,2.497773647E0,-1.512302637E0
2.239415322E1,1.211831570E0,1.677992344E0,-1.519613266E-1
2.241298077E1,2.308168411E-1,1.966375113E-1,-3.743648529E-2
2.243180833E1,-2.322530746E-1,3.404738903E-1,-1.090817451E0
2.245063593E1,-7.400350571E-1,1.530562639E0,-1.461057663E0
2.246946348E1,-1.493586540E0,2.030899048E0,-1.268408060E0
2.248829103E1,-2.371723175E0,8.898558617E-1,-1.277465343E0
2.250711864E1,-2.196898460E0,2.910089493E-2,-1.282481074E0
2.252594619E1,-6.525955200E-1,-1.534776688E-1,-7.327985764E-1
2.254477374E1,1.971464157E-1,7.317409515E-1,-2.680120468E-1
2.256360135E1,-5.131044388E-1,1.693667412E0,-1.496071815E-1
2.258242890E1,-1.914278030E0,2.402944565E0,6.056246758E-1
2.260125645E1,-2.448004723E0,1.760383129E0,6.488047838E-1
2.262008406E1,-3.429763794E0,7.532954216E-1,1.395055771E0
2.263891161E1,-4.376682281E0,2.086857796E0,2.628223896E0
2.265772609E1,-4.381212711E0,4.364881516E0,1.547110677E0
2.267656676E1,-3.089394569E0,1.763584137E0,-1.786559224E-1
2.269539432E1,-8.118982315E-1,-5.878877640E-1,-2.049519539E0
2.271422192E1,-4.198408127E-2,-4.634571075E-1,-3.338991642E0
2.273304947E1,1.033051014E-1,2.814388275E-2,-3.642145395E0
2.275187702E1,8.160843849E-1,9.601373672E-1,-3.069293022E0
2.277070463E1,9.557039738E-1,8.667955399E-1,-2.099956274E0
2.278953218E1,-1.171366453E0,2.221746445E-1,-1.147593617E0
2.280835973E1,-3.743517160E0,-2.688999176E-1,-3.376814723E-1
2.282717421E1,-5.660541058E0,2.387390137E-1,6.252655983E-1
2.284601489E1,-5.775591373E0,1.848383904E0,1.612674117E0
2.286484249E1,-4.567152977E0,3.977068901E0,2.863772392E0
2.288365692E1,-3.737863064E0,6.502434731E0,4.099653721E0
2.290249765E1,-4.586953163E0,7.907008648E0,5.099098206E0
2.292132520E1,-5.954537392E0,7.960866928E0,4.536646843E0
2.294013968E1,-8.685705185E0,8.412096024E0,1.918106079E0
2.295898036E1,-1.045014572E1,7.847983837E0,-6.013801098E-1
2.297780791E1,-9.428238869E0,5.962753773E0,-2.386169434E0
2.299662239E1,-7.476217747E0,4.812271595E0,-3.947595835E0
2.301546307E1,-5.163641930E0,4.585459709E0,-4.279629707E0
2.303429062E1,-3.284555435E0,6.217180729E0,-3.419428587E0
2.305311817E1,-2.344202042E0,7.520868778E0,-2.659593582E0
2.307194577E1,-2.335296631E0,7.559731960E0,-3.540855408E0
2.309077333E1,-2.050427437E0,6.750058174E0,-4.527784348E0
2.310958780E1,-4.013824463E-1,5.706084251E0,-5.933166981E0
2.312842848E1,5.894970894E-1,5.486375809E0,-5.787220478E0
2.314725603E1,1.318653584E0,5.087956905E0,-5.754385948E0
2.316608359E1,2.130174160E0,5.062716961E0,-7.244287491E0
2.318491119E1,2.620080471E0,5.664920807E0,-8.502727509E0
2.320373874E1,3.396349907E0,6.231320381E0,-8.998188972E0
2.322256629E1,4.000371933E0,6.269268036E0,-9.039736748E0
2.324139390E1,4.525689602E0,5.204980373E0,-7.814878464E0
2.326022145E1,6.280344963E0,4.250545502E0,-7.932243347E0
2.327903588E1,8.518088341E0,3.936623335E0,-8.453063011E0
2.329787656E1,9.591199875E0,3.583057880E0,-6.606199741E0
2.331670416E1,9.604850769E0,4.221568584E0,-4.417862415E0
2.333553171E1,8.823525429E0,4.463387489E0,-4.969511032E0
2.335435926E1,7.234481335E0,4.692760468E0,-5.677083015E0
2.337318687E1,5.340640068E0,6.110550404E0,-4.628829479E0
2.339200129E1,4.668232918E0,7.169164181E0,-4.095204353E0
2.341084197E1,3.659977436E0,8.140689850E0,-3.221768618E0
2.342966958E1,2.004012585E0,8.571825027E0,-2.174274206E0
2.344848400E1,1.184670448E0,8.575351715E0,-6.699879169E-1
2.346732473E1,2.357802391E0,1.014395905E1,1.704140902E0
2.348615228E1,4.521977425E0,1.131421089E1,2.910278797E0
2.350496671E1,5.192826271E0,1.213988781E1,4.441318512E0
2.352380744E1,6.125157356E0,1.096211147E1,5.335063934E0
2.354263499E1,5.736774921E0,8.902735710E0,4.812860489E0
2.356144942E1,4.262011051E0,9.006417274E0,2.895520210E0
2.358029015E1,2.658949852E0,1.237980080E1,2.093232155E0
2.359911770E1,7.867412567E-1,1.684349251E1,3.472298622E0
2.361793218E1,-6.992549896E-1,1.730912209E1,3.576863050E0
2.363677286E1,-1.467531681E0,1.627672005E1,3.551837921E0
2.365560041E1,-3.256589413E0,1.624917984E1,3.068789959E0
2.367441489E1,-6.472643852E0,1.551467323E1,1.232404113E0
2.369325556E1,-1.112721443E1,1.435667801E1,-6.182634830E-1
2.371208317E1,-1.126160908E1,1.320981503E1,1.047624350E-1
2.373089760E1,-9.144739151E0,1.090233898E1,1.055876136E0
2.374973833E1,-7.284540176E0,8.052440643E0,1.800034642E0
2.376856588E1,-6.008638382E0,4.234766006E0,1.472127080E0
2.378738036E1,-4.734720230E0,1.200709343E0,9.616911411E-2
2.380622103E1,-3.020021200E0,-3.514280319E-1,-9.120116234E-1
2.382504859E1,-2.517060280E0,-1.452523708E0,-2.285942554E0
2.384386306E1,-2.615489960E0,-2.372921944E0,-3.427708387E0
2.386270374E1,-2.372029305E0,-3.631500244E0,-4.645907879E0
2.388153135E1,-2.464952230E0,-3.501226425E0,-4.936111927E0
2.390035890E1,-2.138358116E0,-2.824276447E0,-4.256240368E0
2.391918650E1,-1.258363128E0,-2.828804016E0,-3.957130671E0
2.393801406E1,-1.566920280E-1,-3.378205776E0,-4.428952694E0
2.395684161E1,2.611429691E-1,-4.106900215E0,-4.727144718E0
2.397566921E1,-1.009357095E0,-4.762809753E0,-5.100762367E0
2.399449676E1,-4.070022583E0,-4.022565365E0,-5.202315807E0
2.401331124E1,-6.283553600E0,-2.638558865E0,-3.930002213E0
2.403215197E1,-6.580427647E0,-2.177217484E0,-6.921038628E-1
2.405097952E1,-7.549907207E0,-1.681940556E0,2.259584904E0
2.406979400E1,-9.657576561E0,-1.356674671E0,3.918928623E0
2.408863468E1,-1.074538612E1,-1.019449234E0,5.339236736E0
2.410746228E1,-1.095863533E1,1.176151276E0,6.832397938E0
2.412627676E1,-1.045388126E1,3.910479546E0,7.765243053E0
2.414511744E1,-7.147908211E0,5.734121323E0,8.539441109E0
2.416394499E1,-3.511726618E0,8.124290466E0,9.469535828E0
2.418277260E1,-1.757231236E0,9.542176247E0,9.104932785E0
2.420160020E1,-1.341746330E0,8.782953262E0,7.760177135E0
2.422042775E1,-1.784247875E0,8.140796661E0,7.307850361E0
2.423925536E1,-2.074262142E0,7.414859295E0,7.005711555E0
2.425808291E1,-1.969397068E0,7.087905407E0,6.214421749E0
2.427691051E1,-1.326365948E0,6.440790176E0,4.735216141E0
2.429572494E1,-1.188359261E-1,6.248180389E0,2.635495186E0
2.431456562E1,1.130867481E0,6.604596615E0,9.661574364E-1
2.433339322E1,1.456662178E0,6.873389244E0,-7.450060844E-1
2.435220765E1,1.503528118E0,5.711095333E0,-2.658644199E0
2.437104838E1,2.206228733E0,4.596613884E0,-4.482272148E0
2.438987593E1,3.361767769E0,3.311840057E0,-4.955271244E0
2.440869041E1,4.340861320E0,2.268215179E0,-5.298198700E0
2.442753109E1,5.694896221E0,1.666641951E0,-5.654383659E0
2.444635864E1,6.637589931E0,1.487895489E0,-5.409783840E0
2.446518624E1,6.410324097E0,1.315243721E0,-5.861674309E0
2.448401379E1,6.336162567E0,3.754334450E-1,-6.928187847E0
2.450284135E1,5.946912289E0,-4.461917877E-1,-8.218061447E0
2.452166895E1,4.895717621E0,-6.635057926E-1,-9.658554077E0
2.454049650E1,4.515970707E0,-4.573283195E-1,-8.967249870E0
2.455932411E1,4.717371464E0,-2.843966484E-1,-6.477608204E0
2.457813853E1,4.813942909E0,-4.235441685E-1,-4.041163445E0
2.459697921E1,5.137343407E0,-6.120462418E-1,-3.478705883E0
2.461580682E1,5.167725563E0,-3.842551708E-1,-2.971644402E0
2.463463437E1,4.271692276E0,3.782165051E-1,-1.991580009E0
2.465346197E1,3.686324596E0,5.104391575E-1,-1.760796070E0
2.467228952E1,4.857896328E0,-1.148893833E-1,-1.301130295E0
2.469111713E1,6.173790932E0,6.681129932E-1,-4.844970703E-1
2.470994468E1,6.549191475E0,2.230839729E0,3.480629921E-1
2.472877228E1,4.747770309E0,4.270323277E0,1.002376080E0
2.474758671E1,4.953737259E-1,4.740607262E0,-8.824348450E-2
2.476642744E1,-3.919591904E0,4.036077023E0,-1.747531652E0
2.478525499E1,-6.059176445E0,2.798668623E0,-1.453814507E0
2.480406947E1,-5.306552887E0,8.133442998E-1,-1.466279268E0
2.482291015E1,-3.541306496E0,-9.649145603E-1,-9.150583744E-1
2.484173770E1,-2.728070259E0,-1.447987318E0,9.939146042E-2
2.486056530E1,-2.146132469E0,-7.446449995E-1,3.480277061E-1
2.487939286E1,-2.458726883E0,-4.663742781E-1,3.398351669E-1
2.489822046E1,-2.045364380E0,3.548400402E-1,6.817030907E-1
2.491704801E1,-2.360483170E0,1.131796837E0,9.200038910E-1
2.493587556E1,-2.677035332E0,8.110506535E-1,4.928073883E-1
2.495470317E1,-2.952574730E0,6.431081295E-1,-5.539422035E-1
2.497353072E1,-2.456959724E0,1.147103310E-2,-1.614827871E0
2.499235833E1,-1.483609200E0,-9.584033489E-1,-1.389155865E0
2.501118588E1,-1.585172653E0,-1.431877375E0,-4.637622833E-1
2.503001343E1,-2.259011745E0,-1.612496138E0,-1.636020422E0
2.504884103E1,-2.465413094E0,-7.092347145E-1,-2.614932775E0
2.506766859E1,-2.107861042E0,5.816068649E-1,-2.600014210E0
2.508649619E1,-1.625300407E0,7.494029999E-1,-2.602004051E0
2.510532374E1,-1.810524940E0,-1.241259575E0,-2.483307362E0
2.512415135E1,-2.060068607E0,-3.442871094E0,-3.146521091E0
2.514297890E1,-2.522698879E0,-3.860842228E0,-3.829966307E0
2.516180650E1,-3.362156868E0,-2.070629120E0,-3.956014156E0
2.518063406E1,-4.267305374E0,1.536544323E0,-3.445172787E0
2.519944853E1,-3.823416471E0,4.750425816E0,-2.595944881E0
2.521828921E1,-1.130133390E0,4.720417976E0,-5.163509846E-1
2.523711676E1,1.057030439E0,2.391671181E0,9.042153358E-1
2.525593124E1,-2.154462337E-1,7.679433823E-1,1.115605831E-1
2.527477197E1,-3.756885767E0,8.169651031E-2,-1.671513915E0
2.529359952E1,-5.638728619E0,-1.585903168E-1,-2.147735119E0
2.531241400E1,-3.694486856E0,-2.724075317E-2,-9.340546131E-1
2.533125468E1,-5.422506332E-1,9.191904068E-1,8.588366508E-1
2.535008223E1,1.630152941E0,1.643240929E0,2.522580862E0
2.536890984E1,2.075374365E0,2.402347565E0,2.965951920E0
2.538773744E1,7.739725113E-1,4.426561356E0,2.013407230E0
2.540656499E1,-1.223705530E0,6.787879944E0,8.801386356E-1
2.542539260E1,-1.898295164E0,6.799528122E0,4.453566074E-1
2.544422015E1,-1.173655272E0,4.915267944E0,9.934108257E-1
2.546304775E1,1.046776772E0,1.523932457E0,1.213772058E0
2.548186218E1,4.138295174E0,-2.469765663E0,9.822020531E-1
2.550070291E1,6.810568810E0,-4.971149445E0,5.175819397E-1
2.551953046E1,7.237864494E0,-5.454225540E0,1.193192005E-1
2.553834494E1,5.699346542E0,-3.923541546E0,4.478743076E-1
2.555718562E1,3.204131126E0,-1.307035446E0,1.036679029E0
2.557601322E1,8.295630217E-1,1.418165207E0,9.395704269E-1
2.559482770E1,-8.207499981E-1,2.614461899E0,-1.350910664E-1
2.561366838E1,-1.952952862E0,2.339415550E0,-1.432276011E0
2.563249598E1,-2.732849836E0,1.361158371E0,-1.881288052E0
2.565132353E1,-3.072576046E0,4.583787918E-1,-1.923411250E0
2.567015114E1,-2.973401546E0,-2.202911377E-1,-1.671568632E0
2.568897869E1,-2.431268930E0,-3.106031418E-1,-1.024679661E0
2.570780629E1,-1.657801628E0,-7.242860794E-1,-6.591231823E-1
2.572663385E1,-1.509735107E0,-1.310377121E0,-3.454855680E-1
2.574546145E1,-1.915117741E0,-1.724769592E0,-2.341449261E-1
2.576428900E1,-2.185653448E0,-1.830834389E0,-3.832626343E-1
2.578311661E1,-2.118755341E0,-2.334345818E0,-9.336615801E-1
2.580194416E1,-1.851483107E0,-2.820090771E0,-1.218030214E0
2.582077176E1,-1.702376962E0,-2.756986618E0,-1.185601950E0
2.583959932E1,-1.595023632E0,-2.057035446E0,-1.206022501E0
2.585842692E1,-1.749225020E0,-3.912887573E-1,-9.832262993E-1
2.587724140E1,-1.866964459E0,1.090589523E0,-9.083985090E-1
2.589608208E1,-2.029479027E0,2.200380325E0,-7.274043560E-1
2.591490968E1,-2.167676687E0,2.766784668E0,-9.255589247E-1
2.593373723E1,-1.686863303E0,2.246994019E0,-1.164840579E0
2.595256484E1,-2.904192209E-1,1.108429909E0,-1.265642881E0
2.597139239E1,1.254578948E0,4.202203751E-1,-1.007830501E0
2.599021999E1,1.983471632E0,-4.321870804E-1,-1.212022781E0
2.600904754E1,2.217355013E0,-2.105216980E-1,-1.439476728E0
2.602787515E1,2.530470371E0,1.235107422E0,-1.308677793E0
2.604670275E1,2.450152636E0,2.911989212E0,-4.749743938E-1
2.606553031E1,1.653806329E0,2.798309326E0,6.984610558E-1
2.608435791E1,1.217898726E0,1.017321587E0,1.944841146E0
2.610317239E1,1.662457228E0,-8.433628082E-1,2.643605947E0
2.612201306E1,2.311766148E0,-1.354722977E0,3.186823606E0
2.614084067E1,2.722177505E0,-1.054250717E0,3.120876312E0
2.615965515E1,1.959635377E0,2.395315170E-1,2.654510260E0
2.617849583E1,3.705581427E-1,2.077408791E0,1.942808628E0
2.619732343E1,-1.056400895E0,3.114896774E0,1.092155933E0
2.621615098E1,-1.953678250E0,3.326413155E0,2.763042450E-1
2.623497859E1,-1.723599911E0,2.558354378E0,-3.627259731E-1
2.625380619E1,-8.632777929E-1,8.754005432E-1,-5.265371799E-1
2.627262067E1,3.503370285E-2,-8.535852432E-1,-4.665458202E-1
2.629146135E1,4.951999187E-1,-2.164085388E0,-5.629401207E-1
2.631028895E1,5.534553528E-1,-2.522459507E0,-7.978549004E-1
2.632911650E1,-1.558327675E-2,-2.133564472E0,-1.302830696E0
2.634794411E1,-9.833853245E-1,-1.178995132E0,-1.670913219E0
2.636677171E1,-1.630637169E0,-2.395601273E-1,-1.523689985E0
2.638559926E1,-2.043368101E0,1.655359268E-1,-1.777147055E0
2.640442687E1,-2.562819958E0,-1.031398773E-1,-2.222345114E0
2.642325447E1,-2.214454889E0,-7.824621201E-1,-2.640516758E0
2.644208202E1,-1.529770374E0,-1.579059124E0,-2.827982903E0
2.646090963E1,-7.161211967E-1,-1.983369350E0,-2.994998932E0
2.647973723E1,2.043962479E-3,-1.465489388E0,-2.836007595E0
2.649856478E1,5.626577139E-1,-5.442466736E-1,-2.732085466E0
2.651739239E1,1.804802418E-1,1.443490982E-1,-2.680710316E0
2.653621999E1,-2.687358856E-1,2.650737762E-1,-2.598708153E0
2.655504754E1,-8.099710941E-1,1.144495010E-1,-2.526970863E0
2.657387515E1,-6.928372383E-1,-4.711723328E-2,-2.513859272E0
2.659270275E1,-3.838074207E-1,2.891998291E-1,-2.197025537E0
2.661153031E1,4.287382364E-1,2.464284897E-1,-1.668917894E0
2.663035791E1,1.265254378E0,2.190656662E-1,-1.324087858E0
2.664918551E1,2.018338442E0,3.273334503E-1,-8.682196140E-1
2.666801306E1,2.032894373E0,1.313189507E0,-1.790797710E-1
2.668684067E1,1.514177799E0,3.035414696E0,5.812129974E-1
2.670566827E1,5.448065996E-1,4.754858017E0,1.399052143E0
2.672449588E1,-5.898590088E-1,5.431957245E0,2.719569921E0
2.674332343E1,-1.296948433E0,5.049231529E0,4.094125271E0
2.676215103E1,-1.557449341E0,4.842595100E0,4.611361504E0
2.678096551E1,-1.101505518E0,2.981608391E0,3.723843098E0
2.679980624E1,-3.313264847E-1,-8.260917664E-2,2.437277794E0
2.681863379E1,-1.541740894E-1,-3.198120594E0,6.378650665E-1
2.683744827E1,-1.206712723E-1,-4.889979839E0,-8.035421371E-1
2.685628900E1,1.601994038E-1,-4.493163109E0,-1.636456490E0
2.687511661E1,4.482176304E-1,-2.499480247E0,-2.214413166E0
2.689393109E1,3.183288574E-1,-2.800941467E-3,-2.285078049E0
2.691277176E1,-1.467494965E-1,1.431135178E0,-2.373543024E0
2.693159937E1,-6.408901215E-1,1.445215225E0,-2.302552223E0
2.695042697E1,-8.725285530E-1,8.224544525E-1,-1.678899765E0
2.696925452E1,-6.493465900E-1,-3.635501862E-1,-5.549147129E-1
2.698808213E1,-2.069680691E-1,-1.319735527E0,4.363036156E-1
2.700690973E1,2.489511967E-1,-2.090092182E0,9.565241337E-1
2.702573728E1,2.254862785E-1,-2.406821251E0,9.743592739E-1
2.704456489E1,-1.047554016E-1,-2.588290691E0,5.493807793E-1
2.706339249E1,-6.548347473E-1,-2.277223587E0,-4.117560387E-2
2.708222010E1,-1.197436333E0,-1.937015533E0,-6.626062393E-1
2.710104765E1,-1.547513485E0,-1.535428047E0,-1.069937706E0
2.711987525E1,-1.606468678E0,-1.060370445E0,-1.007083654E0
2.713870286E1,-1.548563004E0,-5.887203217E-1,-9.025645256E-1
2.715753046E1,-1.592751980E0,4.689216614E-3,-6.742284298E-1
2.717635801E1,-1.783916235E0,9.078865051E-1,-2.715177536E-1
2.719518562E1,-2.046211481E0,1.786095619E0,3.724756241E-1
2.721401322E1,-2.145086288E0,1.911872864E0,7.532739639E-1
2.723284083E1,-2.254469156E0,1.123597145E0,9.017848969E-1
2.725166838E1,-2.108845472E0,4.041681290E-1,5.825958252E-1
2.727049598E1,-1.632669926E0,1.341088295E0,2.397255898E-1
2.728932359E1,-9.766950607E-1,2.571500778E0,1.534771919E-1
2.730815119E1,-5.652582645E-1,3.287203789E0,2.778768539E-1
2.732697879E1,-9.164249897E-1,3.663751602E0,4.539084435E-1
2.734580635E1,-1.426315069E0,3.190554619E0,3.126473427E-1
2.736463395E1,-1.349730730E0,1.742580891E0,-2.642359734E-1
2.738346156E1,-5.568199158E-1,1.774067879E-1,-5.605807304E-1
2.740228916E1,6.040693521E-1,-5.978736877E-1,-3.429303169E-1
2.742111676E1,1.889919996E0,-6.416420937E-1,-1.859478951E-1
2.743994432E1,2.894973040E0,2.053270340E-1,-1.839885712E-1
2.745877192E1,3.370810509E0,1.160406113E0,6.117439270E-2
2.747759952E1,3.249914885E0,1.844034672E0,2.037763596E-1
2.749642713E1,2.600315571E0,2.121883392E0,1.089873314E-1
2.751525473E1,2.387123585E0,2.131342888E0,2.688455582E-2
2.753408228E1,2.326390266E0,2.206655502E0,1.970210075E-1
2.755290989E1,2.234274864E0,1.776501656E0,2.804703712E-1
2.757173749E1,1.812226057E0,1.491908073E0,-2.879810333E-2
2.759056504E1,1.111554861E0,1.684366703E0,-5.937933922E-1
2.760939265E1,5.576922894E-1,2.144229412E0,-8.800754547E-1
2.762822025E1,3.234539032E-1,1.989360332E0,-1.372555733E0
2.764704786E1,2.303266525E-2,1.803139687E0,-1.966204166E0
2.766587541E1,4.187583923E-3,1.559858322E0,-2.012351036E0
2.768470301E1,-1.339030266E-1,1.972556114E0,-2.103459835E0
2.770353062E1,-3.339920044E-1,1.706970215E0,-2.238034248E0
2.772235822E1,-5.420660973E-1,1.684533596E0,-2.338350773E0
2.774118577E1,-6.528077126E-1,1.169971943E0,-2.517228127E0
2.776001338E1,-5.556507111E-1,2.667152882E-1,-2.831204891E0
2.777884098E1,-2.809572220E-1,-7.532505989E-1,-3.273516178E0
2.779766859E1,7.494401932E-2,-1.636123180E0,-3.736234665E0
2.781649614E1,2.363309860E-1,-1.421306849E0,-3.911132336E0
2.783532374E1,3.536827564E-1,-3.228936195E-1,-3.860283852E0
2.785415135E1,7.270956039E-1,5.713443756E-1,-3.579492569E0
2.787297895E1,1.041076899E0,1.062574625E0,-3.010491848E0
2.789180650E1,1.030318975E0,1.261327267E0,-2.133713245E0
2.791063411E1,6.616876125E-1,1.007270575E0,-1.434096813E0
2.792946171E1,3.205735683E-1,5.396308899E-1,-7.849001884E-1
2.794828926E1,1.231012344E-1,6.578445435E-3,-1.367249489E-1
2.796711687E1,-9.884881973E-2,1.954069138E-1,6.987452507E-1
2.798594447E1,-4.100403786E-1,1.787315845E0,1.769870281E0
2.800477208E1,-1.123398781E0,2.526915073E0,2.228993893E0
2.802359963E1,-2.052568913E0,2.764615059E0,2.365792274E0
2.804242723E1,-2.882233143E0,2.100118637E0,2.155789375E0
2.806125484E1,-3.044797897E0,1.376284599E0,1.678653717E0
2.808008244E1,-1.974812031E0,7.190427780E-1,1.439695835E0
2.809890999E1,-3.566212654E-1,5.373196602E-1,1.075496197E0
2.811773760E1,9.572310448E-1,1.060627937E0,7.431979179E-1
2.813656520E1,1.867399216E0,1.821945667E0,1.074466705E-1
2.815539275E1,2.168029785E0,2.395006657E0,-3.847756386E-1
2.817422036E1,2.080464363E0,2.601513386E0,-5.978326797E-1
2.819304796E1,2.242486954E0,2.556903839E0,-5.187740326E-1
2.821187557E1,2.462392092E0,2.469244957E0,-4.804100990E-1
2.823070312E1,2.858863354E0,2.279712200E0,-5.460500717E-1
2.824953072E1,3.348265886E0,1.920526505E0,-7.556452751E-1
2.826835833E1,3.909386158E0,1.433800220E0,-1.206908226E0
2.828718593E1,4.344964981E0,8.742136955E-1,-2.019335270E0
2.830601353E1,4.544828415E0,2.805523872E-1,-2.864145279E0
2.832484109E1,4.664449215E0,-5.964574814E-1,-3.557332516E0
2.834366869E1,4.946022987E0,-1.432765484E0,-3.639209032E0
2.836249629E1,5.254106998E0,-1.404073238E0,-3.064032555E0
2.838132390E1,5.339916706E0,-5.006546974E-1,-2.267377377E0
2.840015145E1,4.727153301E0,8.284029961E-1,-1.213881016E0
2.841897906E1,3.752926111E0,1.615977764E0,-2.073903084E-1
2.843780666E1,2.849072933E0,1.853729725E0,9.721379280E-1
2.845663426E1,1.767936349E0,2.730051517E0,2.046636105E0
2.847546182E1,3.322064877E-1,3.725865364E0,2.702517986E0
2.849428942E1,-1.198786020E0,2.693894386E0,2.973760605E0
2.851311702E1,-2.869514704E0,1.399178982E0,2.935848713E0
2.853194463E1,-4.480339050E0,1.032716274E0,2.837219715E0
2.855077218E1,-5.272634029E0,1.168346405E-1,2.961829185E0
2.856959978E1,-5.543161869E0,-1.042231083E0,2.826282978E0
2.858842739E1,-5.519194603E0,-1.597869873E0,2.628309250E0
2.860725499E1,-4.981820107E0,-1.500508308E0,2.459893227E0
2.862608254E1,-4.309262753E0,-9.044013023E-1,2.317852497E0
2.864491015E1,-3.778753042E0,-5.026631355E-1,2.029974937E0
2.866373775E1,-3.365793467E0,-5.239291191E-1,1.547513485E0
2.868256536E1,-2.702658892E0,-8.689069748E-1,1.018220425E0
2.870139296E1,-1.781570911E0,-1.204617977E0,4.846267700E-1
2.872022051E1,-1.125627041E0,-1.082825184E0,-6.033611298E-2
2.873904812E1,-7.959952354E-1,-7.650256157E-1,-7.293491364E-1
2.875787572E1,-6.310694218E-1,-6.152334213E-1,-1.329048634E0
2.877670333E1,-5.014233589E-1,-6.250753403E-1,-1.620112896E0
2.879553088E1,-4.196946621E-1,-7.663807869E-1,-1.629560947E0
2.881435848E1,-2.333042622E-1,-9.583325386E-1,-1.300709724E0
2.883318609E1,-4.880070686E-2,-1.304022312E0,-9.717311859E-1
2.885201369E1,-1.530053616E-1,-1.483558893E0,-6.546645164E-1
2.887084124E1,-3.756361008E-1,-1.589536190E0,-5.344519615E-1
2.888966885E1,-7.316868305E-1,-1.226441860E0,-4.326763153E-1
2.890849645E1,-1.059087992E0,-1.004769802E0,-2.794399261E-1
2.892732400E1,-1.233961105E0,-7.691106796E-1,-1.736307144E-1
2.894615161E1,-1.246035814E0,-1.456600189E0,-4.074969292E-1
2.896497921E1,-9.437654018E-1,-2.236875534E0,-8.046474457E-1
2.898380682E1,-5.761013031E-1,-2.033264399E0,-1.033738613E0
2.900263437E1,-2.535679340E-1,-1.395035744E0,-1.169633865E0
2.902146197E1,3.613853455E-2,-5.905718803E-1,-9.985718727E-1
2.904028958E1,5.775904655E-2,-1.317768097E-1,-8.730783463E-1
2.905911718E1,-3.169806004E-1,-2.256107330E-1,-7.715382576E-1
2.907794473E1,-6.298136711E-1,-7.076849937E-1,-7.229752541E-1
2.909677234E1,-8.794729710E-1,-1.152248859E0,-7.173671722E-1
2.911559994E1,-9.949376583E-1,-3.885393143E-1,-3.841562271E-1
2.913442754E1,-1.286160946E0,8.994851112E-1,3.145155907E-1
2.915325510E1,-1.461988211E0,1.473634243E0,1.287623882E0
2.917208270E1,-1.827619314E0,1.578093052E0,2.407262325E0
2.919091031E1,-2.643020153E0,1.076920509E0,2.854155540E0
2.920972478E1,-3.113317013E0,-6.872606277E-1,3.090365887E0
2.922856546E1,-2.848281860E0,-2.977044344E0,2.509453297E0
2.924739306E1,-2.141304255E0,-3.273884058E0,2.199708462E0
2.926622067E1,-1.552778721E0,-1.858762264E0,2.209207058E0
2.928504822E1,-1.261259079E0,-6.563076973E-1,2.437252998E0
2.930387583E1,-1.627053261E0,-1.709642410E-1,2.208578110E0
2.932270343E1,-2.341328144E0,4.842185974E-2,1.839936733E0
2.934153098E1,-2.713387489E0,2.834177017E-2,1.591603756E0
2.936035859E1,-2.614754200E0,-3.005304337E-1,1.486630917E0
2.937918619E1,-2.280776978E0,-5.593481064E-1,1.300298214E0
2.939801379E1,-1.962576866E0,-5.511717796E-1,1.037829399E0
2.941684135E1,-1.509873867E0,-8.410449028E-1,6.401433945E-1
2.943566895E1,-1.036654949E0,-1.228084087E0,-1.418457031E-1
2.945449656E1,-7.967104912E-1,-1.205157995E0,-6.167349815E-1
2.947332411E1,-4.191188812E-1,-1.449555397E0,-1.194451332E0
2.949215171E1,-6.926965714E-2,-1.326829672E0,-1.522020817E0
2.951097932E1,2.611141205E-1,-1.436797142E0,-1.945872307E0
2.952980687E1,3.700003624E-1,-1.594657660E0,-2.230897427E0
2.954863447E1,2.204627991E-1,-1.482023716E0,-2.516003132E0
2.956746208E1,-1.750159264E-1,-1.160166264E0,-2.647611141E0
2.958628963E1,-5.192570686E-1,-7.881236076E-1,-2.627350807E0
2.960511723E1,-5.519537926E-1,-4.757273197E-1,-2.214200974E0
2.962394484E1,-5.851144791E-1,-5.250236988E-1,-1.896913528E0
2.964277244E1,-3.861088753E-1,-7.342629433E-1,-1.796126366E0
2.966159999E1,-3.088088036E-1,-5.239875317E-1,-1.601470470E0
2.968042760E1,1.301951408E-1,1.870300770E-1,-1.054413795E0
2.969925520E1,6.067757607E-1,1.181291103E0,-4.663958549E-1
2.971808280E1,7.697687149E-1,2.104403973E0,-1.179957390E-1
2.973691036E1,1.044134617E0,2.383875608E0,3.159017563E-1
2.975573796E1,1.361410618E0,1.872470379E0,7.996783257E-1
2.977456557E1,1.569243670E0,2.338785648E0,1.529165268E0
2.979339317E1,1.929570198E0,2.882942200E0,1.921994209E0
2.981222072E1,2.209250689E0,2.313915014E0,1.471055984E0
2.983104833E1,2.769945383E0,1.499274015E0,6.698107719E-1
2.984987593E1,3.339954853E0,1.729143858E0,2.087736130E-2
2.986870353E1,3.929506540E0,2.126230717E0,-7.983112335E-2
2.988753109E1,4.106593132E0,2.462825537E0,1.057710648E-1
2.990635869E1,3.610757828E0,2.343684912E0,1.219363213E-1
2.992518629E1,2.759477854E0,2.184695482E0,1.868872643E-1
2.994401385E1,1.973407030E0,2.110314369E0,2.073378563E-1
2.996284145E1,7.437796593E-1,1.798876762E0,1.678256989E-1
2.998166906E1,3.664159775E-2,1.770782948E0,-3.564500809E-2
3.000049666E1,-1.125531197E-1,2.093714476E0,1.366276741E-1
3.001932426E1,-9.904718399E-2,2.406112432E0,3.617267609E-1
3.003815182E1,1.378040314E-1,2.224942923E0,5.161232948E-1
3.005697942E1,3.517155647E-1,1.885077715E0,5.920634270E-1
3.007580702E1,2.186303139E-1,1.533441067E0,3.083143234E-1
3.009463463E1,-1.372270584E-1,1.471234560E0,-2.088613510E-1
3.011346223E1,-4.895086288E-1,1.134251118E0,-3.996987343E-1
3.013228978E1,-7.509613037E-1,1.026605368E0,-6.310381889E-1
3.015111739E1,-1.086180210E0,1.022814751E0,-9.955039024E-1
3.016994499E1,-1.219726562E0,7.107748985E-1,-1.682458878E0
3.018877260E1,-1.056301594E0,-1.697287560E-1,-2.361901283E0
3.020760020E1,-5.441479683E-1,-1.140344620E0,-2.754194736E0
3.022642775E1,-9.580373764E-2,-1.506189585E0,-2.924261570E0
3.024525536E1,1.935873032E-1,-1.288080215E0,-3.059004307E0
3.026408296E1,2.255911827E-1,-5.738964081E-1,-3.168350220E0
3.028291056E1,7.997369766E-2,1.664693356E-1,-3.152538300E0
3.030173817E1,-2.208580971E-1,5.809226036E-1,-2.919793606E0
3.032056577E1,-6.676173210E-1,8.781838417E-1,-2.396836758E0
3.033939333E1,-1.301461697E0,1.039303780E0,-1.779265881E0
3.035822093E1,-1.878399372E0,8.836214542E-1,-1.193556309E0
3.037704853E1,-2.257342339E0,1.108838558E0,-6.079883575E-1
3.039587614E1,-2.756851196E0,1.733676434E0,2.476553917E-1
3.041470369E1,-3.483345985E0,1.930191517E0,1.078242779E0
3.043353129E1,-3.944351673E0,1.568782330E0,1.536456108E0
3.045235890E1,-4.021370411E0,1.186268806E0,1.642000675E0
3.047118650E1,-3.423456669E0,9.833731651E-1,1.671267509E0
3.049001411E1,-1.769228935E0,8.688421249E-1,1.775433540E0
3.050882859E1,5.271100998E-2,7.370920181E-1,1.593090057E0
3.052766926E1,1.356649637E0,1.572455406E0,1.438124180E0
3.054649687E1,2.152330160E0,2.717192173E0,1.198946476E0
3.056532447E1,2.492430210E0,3.218015194E0,1.092213631E0
3.058415208E1,2.409846544E0,3.481384754E0,1.233087540E0
3.060297963E1,2.308930397E0,3.509871244E0,1.460540295E0
3.062180723E1,2.529222250E0,3.378765106E0,1.599598885E0
3.064063484E1,3.059213638E0,3.416467905E0,1.791722775E0
3.065946244E1,3.557980537E0,3.354712725E0,1.582344055E0
3.067828999E1,3.767953634E0,2.860504627E0,7.072029114E-1
3.069711760E1,3.866417170E0,2.090630293E0,-4.731545448E-1
3.071594520E1,4.045556068E0,8.231253624E-1,-1.845157146E0
3.073477281E1,4.449790001E0,-4.337964058E-1,-3.135222435E0
3.075360041E1,4.868636131E0,-8.167510033E-1,-3.913281441E0
3.077242796E1,4.866939545E0,-1.386687756E-1,-3.854339123E0
3.079125556E1,4.678497314E0,5.765769482E-1,-3.380922794E0
3.081008317E1,4.580470562E0,2.430374622E-1,-2.649131775E0
3.082891077E1,4.217558861E0,-3.166232109E-1,-2.019095898E0
3.084773833E1,3.508905411E0,3.150923252E-1,-1.000607014E0
3.086656593E1,2.281283379E0,1.141192675E0,1.780729294E-1
3.088539353E1,7.832145691E-1,6.000690460E-1,1.159893990E0
3.090420801E1,-7.976551056E-1,-3.239645958E-1,1.456299782E0
3.092304874E1,-2.784801006E0,-6.696617603E-1,1.700046062E0
3.094187629E1,-4.761920452E0,-8.016669750E-1,1.488997936E0
3.096070390E1,-6.098540783E0,-3.717303276E-1,1.646699905E0
3.097953150E1,-6.350326538E0,-6.755008698E-1,1.471761227E0
3.099835911E1,-5.999681473E0,-1.126122475E0,1.310108662E0
3.101718671E1,-5.885775089E0,-1.840598345E0,7.819304466E-1
3.103601432E1,-5.879883766E0,-1.729670525E0,5.932230949E-1
3.105484192E1,-5.620555878E0,-1.393676281E0,1.242165565E-1
3.107366947E1,-5.546367168E0,-9.122815132E-1,-2.194118500E-1
3.109249708E1,-5.392150879E0,-8.849034309E-1,-3.478593826E-1
3.111132468E1,-4.954164505E0,-1.576546192E0,-3.674917221E-1
3.113015228E1,-4.187425613E0,-1.830801010E0,-4.723792076E-1
3.114897989E1,-3.232143641E0,-1.333703995E0,-5.712547302E-1
3.116780749E1,-2.210010767E0,-7.019095421E-1,-4.269804955E-1
3.118663504E1,-1.162134647E0,-5.962915421E-1,-1.720337868E-1
3.120546265E1,-3.808863163E-1,-2.770252228E-1,2.303371429E-1
3.122429025E1,3.174567223E-2,-3.870987892E-1,2.083044052E-1
3.124311786E1,3.654944897E-1,-5.837173462E-1,2.171711922E-1
3.126194546E1,7.852632999E-1,-5.349235535E-1,4.171543121E-1
3.128077306E1,9.759957790E-1,1.151638031E-1,7.014737129E-1
3.129960062E1,1.018280268E0,6.290245056E-1,8.171906471E-1
3.131842822E1,9.996168613E-1,6.131796837E-1,1.008591652E0
3.133725583E1,1.058482170E0,-5.720205307E-1,6.734404564E-1
3.135608343E1,1.401627302E0,-1.669711113E0,2.996668816E-1
3.137491103E1,2.173978329E0,-1.659217834E0,-1.855273247E-1
3.139373859E1,2.961562634E0,-9.391779900E-1,-5.341544151E-1
3.141256619E1,3.374804258E0,9.276294708E-2,-3.303813934E-1
3.143139379E1,3.462760687E0,-2.379136086E-1,-2.077398300E-1
3.145022140E1,2.955454111E0,-4.537124634E-1,-8.642687798E-1
3.146904900E1,1.841263890E0,-3.430161476E-1,-1.390882969E0
3.148787661E1,7.561559677E-1,-4.834480286E-1,-1.304827213E0
3.150670421E1,2.861738205E-3,-8.206529617E-1,-1.066511154E0
3.152553176E1,-1.003294706E0,-2.063426971E-1,-5.729136467E-1
3.154435937E1,-2.440983295E0,7.956333160E-1,5.805211067E-1
3.156318697E1,-4.698311806E0,2.532023907E0,2.202152729E0
3.158200145E1,-8.049427986E0,3.056101322E0,3.380048752E0
3.160084218E1,-1.155793285E1,1.286952972E0,2.937304020E0
3.161966973E1,-1.425656319E1,-2.090034485E-1,1.832947731E0
3.163849734E1,-1.481785583E1,-1.726716518E0,5.520620346E-1
3.165732494E1,-1.313720322E1,-1.192787170E0,3.948574066E-1
3.167615254E1,-1.042822933E1,1.401124477E0,2.345438004E-1
3.169496702E1,-7.934115887E0,3.475408077E0,-1.170468330E-1
3.171380770E1,-5.895057201E0,4.244494438E0,-8.894586563E-2
3.173263531E1,-4.096920490E0,4.047336578E0,6.391525269E-1
3.175146291E1,-2.668389320E0,3.665248632E0,1.022553444E0
3.177029046E1,-1.911978722E0,3.527936459E0,7.600512505E-1
3.178911806E1,-2.244492054E0,3.720353603E0,3.305897713E-1
3.180794567E1,-2.091972351E0,3.487030983E0,3.947854042E-1
3.182677327E1,-1.699534416E0,3.267636299E0,-8.395528793E-2
3.184560083E1,-1.615175247E0,2.946987629E0,-7.068061829E-1
3.186442843E1,-1.665145397E0,2.535481930E0,-1.769948483E0
3.188325603E1,-1.759234428E0,2.717048407E0,-2.196869850E0
3.190208359E1,-9.978523254E-1,3.535212278E0,-1.437384605E0
3.192091119E1,4.537110329E-1,5.018392563E0,-1.635669231E0
3.193973879E1,1.125721455E0,5.777432442E0,-2.903367043E0
3.195856640E1,1.363508701E0,6.052611351E0,-3.514775753E0
3.197739400E1,1.564489841E0,6.586123466E0,-2.880870581E0
3.199622161E1,1.833755493E0,6.929730415E0,-2.103181124E0
3.201504916E1,2.128814220E0,6.392530441E0,-1.910506964E0
3.203387676E1,1.638986588E0,6.688141823E0,-1.100602388E0
3.205270437E1,1.407068729E0,7.168132782E0,-5.481479168E-1
3.207153197E1,5.964207649E-1,7.824871063E0,-7.386782169E-1
3.209035958E1,-9.239950180E-1,8.189472198E0,-4.300396442E-1
3.210918718E1,-1.411639690E0,7.582242012E0,-5.139386654E-1
3.212801473E1,-1.103839874E0,7.051813126E0,-1.738638878E-1
3.214684234E1,-3.454074860E-1,5.579641342E0,1.963343620E-1
3.216566994E1,2.543115616E-1,5.841470242E0,1.005240440E0
3.218449754E1,9.620649815E-1,6.566498280E0,8.271460533E-1
3.220331202E1,1.824935436E0,5.475516796E0,3.505840302E-1
3.222215275E1,3.117383957E0,4.645240307E0,1.282082558E0
3.224098030E1,4.872809410E0,4.073972225E0,2.925994396E0
3.225980791E1,5.772243500E0,2.463185549E0,3.924157143E0
3.227863551E1,5.012291908E0,1.697076797E0,4.196601868E0
3.229746312E1,3.391712189E0,1.303002834E0,3.439614296E0
3.231627760E1,1.381304145E0,1.291928053E0,1.424658775E0
3.233511827E1,-1.266815662E-1,1.470353842E0,-2.615013123E-1
3.235394588E1,1.818394661E-1,1.229082108E0,-1.684652328E0
3.237276036E1,1.674201608E0,8.034749031E-1,-7.424221039E-1
3.239160109E1,3.161750793E0,8.141019344E-1,6.377182007E-1
3.241042869E1,3.999543667E0,1.433674812E0,-1.493225098E-1
3.242924317E1,3.890164852E0,2.528001308E0,-1.499351025E0
3.244808385E1,2.872215509E0,4.038095951E0,-2.473271370E0
3.246691145E1,2.803864479E0,5.783316612E0,-2.640124798E0
3.248573906E1,3.425911427E0,5.731653690E0,-2.275002956E0
3.250456666E1,3.065073729E0,5.004009724E0,-1.994600773E0
3.252339426E1,1.994365335E0,6.162203312E0,-1.545809746E0
3.254220874E1,2.388674498E0,8.506556511E0,-1.100575924E0
3.256104947E1,2.994023800E0,9.936019897E0,-3.912649155E-1
3.257987708E1,1.448467493E0,1.056676197E1,6.374940872E-1
3.259869156E1,-7.130894661E-1,8.959211349E0,1.132732391E0
3.261753228E1,-2.814572334E0,7.798056126E0,9.821548462E-1
3.263635989E1,-2.129895449E0,7.216190338E0,1.736474037E0
3.265517437E1,-1.096522570E0,8.641984940E0,3.154522896E0
3.267401510E1,-2.956395149E0,9.478146553E0,3.983610153E0
3.269284270E1,-6.091484070E0,8.437633514E0,3.923739433E0
3.271165718E1,-9.321459770E0,7.741412163E0,2.543368340E0
3.273049791E1,-1.145455456E1,6.762784004E0,1.198710442E0
3.274932551E1,-1.282295227E1,4.163240433E0,-6.364364624E-1
3.276813999E1,-1.361393261E1,1.349560022E0,-2.179732800E0
3.278698072E1,-1.432627010E1,-1.192644119E0,-3.836507797E0
3.280580833E1,-1.362095070E1,-2.994490385E0,-4.081118107E0
3.282463593E1,-1.310068512E1,-4.322915077E0,-4.008049965E0
3.284346353E1,-1.226661301E1,-4.634797096E0,-3.223515511E0
3.286229114E1,-1.074032211E1,-4.676833630E0,-1.810152531E0
3.288110562E1,-9.501694679E0,-3.652325630E0,-4.791717529E-1
3.289994629E1,-7.935998440E0,-2.570072174E0,-1.415243149E-1
3.291877390E1,-6.756152153E0,-2.350327730E0,2.766256332E-1
3.293758838E1,-5.402200699E0,-2.194368839E0,-4.483823776E-1
3.295642911E1,-3.816811562E0,6.845903397E-2,-9.035949707E-1
3.297525671E1,-2.611819983E0,1.119463921E0,-6.930589676E-1
3.299407119E1,-1.564223886E0,1.119985580E-1,-4.109497070E-1
3.301291187E1,-1.485747099E-1,4.167733192E-1,-1.418800354E-1
3.303173947E1,6.617341042E-1,9.881467819E-1,-5.373001099E-3
3.305055395E1,3.597511649E-1,9.068112373E-1,-1.911840916E0
3.306939468E1,3.576683998E-1,8.945331573E-1,-3.761365891E0
3.308822228E1,1.284443021E0,1.018917084E0,-3.780859470E0
3.310704984E1,2.461347103E0,9.251503944E-1,-2.944622993E0
3.312587744E1,3.119880199E0,8.045725822E-1,-2.334997654E0
3.314470504E1,3.674131632E0,8.787660599E-1,-7.587652206E-1
3.316353265E1,3.496983767E0,2.125077248E-1,5.680932999E-1
3.318236025E1,2.294914961E0,-4.113085270E-1,9.787664413E-1
3.320118786E1,3.967095613E-1,-8.553886414E-1,8.452682495E-1
3.322000234E1,-1.089449167E0,-3.135037422E-1,1.959473610E0
3.323884301E1,-1.152528048E0,2.526094913E-1,3.262331963E0
3.325767062E1,2.287185192E-1,2.544183731E-1,4.148685455E0
3.327648510E1,2.899002552E0,-5.687727928E-1,3.693269730E0
3.329532998E1,4.638827324E0,-4.295368195E-1,3.154506683E0
3.331415759E1,2.874167681E0,1.023284435E0,2.702521801E0
3.333297207E1,4.409136772E-1,2.463592768E0,7.007603645E-1
3.335181274E1,9.638452530E-2,4.092446804E0,-5.339655876E-1
3.337064035E1,1.133497477E0,4.612099171E0,-6.586613655E-1
3.338946795E1,1.171080112E0,4.364644527E0,8.433914185E-2
3.340829556E1,3.334523439E0,4.034024715E0,-1.553643703E0
3.342712316E1,5.717471123E0,2.779296398E0,-1.406927109E-1
3.344595071E1,6.856835365E0,1.230400085E0,1.900781631E0
3.346477832E1,6.459339142E0,8.664650917E-1,1.967780113E0
3.348360592E1,4.274600983E0,1.267448425E0,1.291707039E0
3.350242040E1,1.799457788E0,2.774443150E0,5.507583618E-1
3.352126113E1,-3.493547440E-3,4.498484135E0,1.290321350E-2
3.354008873E1,-1.534000158E0,4.833782196E0,-1.065930367E0
3.355891629E1,-2.672279358E0,4.134864330E0,-1.972974300E0
3.357774389E1,-3.073832512E0,3.330713749E0,-2.235348225E0
3.359657149E1,-3.007617950E0,2.926347733E0,-1.894076824E0
3.361539910E1,-2.521365166E0,2.975026369E0,-8.145866394E-1
3.363422670E1,-1.771480203E0,3.069428682E0,3.234586716E-1
3.365305431E1,-8.029415607E-1,2.415872574E0,4.598588943E-1
3.367188191E1,-3.556667566E-1,2.380525351E0,5.606937408E-2
3.369070946E1,-1.303582191E0,2.609084129E0,2.795143127E-1
3.370953707E1,-2.728042841E0,1.861911297E0,9.707250595E-1
3.372836467E1,-4.017119884E0,1.303586721E0,1.790182114E0
3.374719228E1,-6.059623241E0,1.876318216E0,1.659305573E0
3.376601988E1,-9.106823921E0,1.590073347E0,1.004219055E-2
3.378483436E1,-1.162097645E1,-4.902455807E-1,-2.121248722E0
3.380367509E1,-1.108280182E1,-2.222225904E0,-3.350687981E0
3.382250264E1,-9.377505302E0,-2.386547089E0,-2.993952751E0
3.384133024E1,-9.411099434E0,-1.560010791E0,-2.991854668E0
3.386015785E1,-8.862423897E0,-1.151703238E0,-3.124885082E0
3.387898545E1,-6.055807114E0,-1.068104744E0,-1.929905891E0
3.389779993E1,-4.002859116E0,-6.438999176E-1,-1.395287514E0
3.391664066E1,-3.666433096E0,-1.406668425E-1,-1.610921860E0
3.393546827E1,-4.598246574E0,1.546074152E-1,-1.688436031E0
3.395429587E1,-5.911641598E0,3.034571409E-1,-1.783450603E0
3.397312342E1,-6.476426601E0,-1.082290411E-1,-2.350643158E0
3.399195102E1,-6.704672337E0,-1.591005325E-1,-3.084242344E0
3.401077863E1,-6.318453312E0,-1.638102531E-2,-3.728607655E0
3.402960623E1,-5.466062546E0,3.627641201E-1,-4.029992104E0
3.404843384E1,-4.343444824E0,1.128854990E0,-3.137639046E0
3.406726144E1,-2.930193901E0,1.623294830E0,-1.562897682E0
3.408608905E1,-1.919434905E0,1.707352996E0,-6.129693985E-1
3.410491665E1,-2.221331358E0,1.441635847E0,1.297054291E-1
3.412373113E1,-3.486936331E0,1.186471105E0,-3.973188400E-1
3.414257181E1,-4.727109909E0,1.208374500E0,2.606086731E-1
3.416139941E1,-6.453357697E0,1.207435966E0,1.075129509E0
3.418021389E1,-8.587568283E0,4.667096138E-1,1.233253479E-1
3.419905462E1,-9.713681221E0,7.627929449E-1,-5.863399506E-1
3.421788222E1,-9.088961601E0,2.489480734E0,-1.108018875E0
3.423669670E1,-6.917195320E0,3.098239899E0,-2.161150455E0
3.425553743E1,-5.332951069E0,3.298578978E0,-2.965236664E0
3.427436498E1,-5.182937622E0,5.082496643E0,-4.305141449E0
3.429317946E1,-4.802900791E0,6.375374794E0,-6.026077271E0
3.431202019E1,-3.260664463E0,6.820377350E0,-6.866534233E0
3.433084780E1,-2.582359314E0,6.713144779E0,-6.513810158E0
3.434967540E1,-3.338927269E0,5.711693764E0,-6.305748940E0
3.436850300E1,-4.047239304E0,5.059798241E0,-6.732975483E0
3.438733061E1,-4.267626762E0,3.907832146E0,-5.935547829E0
3.440615821E1,-4.524801254E0,3.099357605E0,-4.380169868E0
3.442498582E1,-4.987678528E0,2.998207569E0,-3.334881783E0
3.444381342E1,-5.062273026E0,2.807848454E0,-3.312969685E0
3.446262790E1,-5.299819469E0,4.322721958E0,-4.090874195E0
3.448146863E1,-5.083571434E0,6.551126480E0,-4.274312019E0
3.450029623E1,-4.958224773E0,8.764694214E0,-4.170169830E0
3.451911071E1,-3.338950634E0,9.005571365E0,-2.806901217E0
3.453795139E1,-9.629788399E-1,7.331491470E0,-1.779261112E0
3.455677905E1,5.119194984E-1,5.891875744E0,-9.225718975E-1
3.457559352E1,8.472824097E-1,3.796221733E0,-1.604578495E0
3.459443420E1,2.378401756E-1,1.933986664E0,-2.600033998E0
3.461326181E1,-1.080044746E0,5.531334877E-1,-3.511777639E0
3.463207629E1,-2.224723816E0,-5.195312500E-1,-4.730006695E0
3.465091702E1,-2.706600666E0,-1.389122009E-1,-6.051679611E0
3.466974462E1,-2.164068699E0,2.394357681E0,-7.264047623E0
3.468855910E1,-1.558379173E0,5.614816189E0,-8.011798859E0
3.470739983E1,-1.462897778E0,8.709897995E0,-5.671627998E0
3.472622743E1,4.615588188E-1,8.784872055E0,-1.991254210E0
3.474504191E1,2.237023830E0,6.154869556E0,-1.485328674E0
3.476388259E1,7.015533447E-1,4.593655586E0,-1.847561002E0
3.478271019E1,-2.539151192E0,4.030550480E0,-3.573367596E0
3.480152467E1,-5.661373615E0,4.528858662E0,-5.610221863E0
3.482036540E1,-4.989768505E0,4.344573498E0,-5.999660015E0
3.483919300E1,2.781624794E-1,5.145178318E0,-3.476276159E0
3.485800748E1,4.827171326E0,5.846855164E0,-3.032426834E-1
3.487684821E1,6.487154007E0,7.022697926E0,2.440772057E0
3.489567582E1,4.750778198E0,8.192410469E0,5.479283333E-1
3.491449030E1,3.438382149E-1,4.849507332E0,-2.146171331E0
3.493333102E1,-1.862890720E0,3.733901978E0,-3.370362997E0
3.495215858E1,-1.900413036E0,2.672685146E0,-3.355745316E0
3.497098618E1,-1.972583771E0,1.881899834E0,-2.113441467E0
3.498981379E1,-3.164176464E0,3.605634689E0,-1.321690559E0
3.500864139E1,-5.319047451E0,3.714310646E0,-1.161096096E0
3.502745587E1,-5.491639137E0,6.572117805E-1,-1.942235708E0
3.504629660E1,-3.594135284E0,-1.236016273E0,-2.625880003E0
3.506512420E1,-1.534215927E0,-2.131334305E0,-1.275809288E0
3.508393868E1,1.873222828E0,-1.992639065E0,-1.714042187E0
3.510277941E1,5.072627068E0,-2.098359585E0,-2.866219282E0
3.512160702E1,7.788696289E0,-2.780614853E0,-3.092604637E0
3.514043462E1,8.570664406E0,-3.148781300E0,-2.220614433E0
3.515926222E1,7.133740425E0,-2.763038874E0,-6.546874046E-1
3.517808983E1,4.246853828E0,-3.007770538E0,4.222412109E-1
3.519690431E1,1.061188936E0,-3.308939695E0,6.302547455E-1
3.521574504E1,-1.322075844E0,-3.403645039E0,1.975350380E-1
3.523457264E1,-2.539127827E0,-3.595604897E0,1.855745316E-1
3.525340024E1,-3.110227108E0,-3.023358583E0,-5.296897888E-2
3.527222785E1,-3.376237154E0,-2.301352978E0,-5.900955200E-2
3.529105545E1,-2.571365356E0,-1.991086006E0,-3.862509727E-1
3.530986993E1,-1.550351262E0,-1.856420517E0,-3.787502527E0
3.532871066E1,-4.970777035E-1,-1.303364754E0,-1.860159874E0
3.534753827E1,1.691686630E0,-2.231916428E0,-5.311004639E0
3.536635274E1,4.179284096E0,-4.695114136E0,-3.988796473E0
3.538519347E1,2.146161318E0,-5.629502296E0,-4.357814789E-1
3.540402108E1,-2.699873447E-1,-1.628025055E0,2.496673584E0
3.542283556E1,3.582531512E-1,-6.852164268E-1,4.251059532E0
3.544167629E1,1.576827049E0,-1.397420883E0,4.360359192E0
3.546050389E1,5.621641874E-1,-4.755487442E-1,4.118889332E0
3.547931842E1,-3.707311153E0,1.676319122E0,1.371494770E0
3.549815910E1,-2.511877537E0,1.162434578E0,1.187511921E0
3.551698675E1,-2.195503712E0,2.163949013E0,1.809377670E0
3.553581436E1,-2.977811337E0,3.931973934E0,2.651461601E0
3.555464196E1,-2.750266552E0,2.713241100E0,3.804845333E0
3.557346957E1,-3.298074722E0,9.482884407E-1,2.047728539E0
3.559229717E1,-3.260158300E0,1.090793610E-1,7.514257431E-1
3.561112478E1,-1.625200510E0,8.174848557E-2,9.525523186E-1
3.562995238E1,-4.743311405E-1,-8.598289490E-1,6.363930702E-1
3.564877998E1,-1.511073112E-1,-9.507822990E-1,7.727513313E-1
3.566760759E1,-2.916519642E-1,-3.914284706E-1,3.948001862E-1
3.568643519E1,-9.697527885E-1,5.988392830E-1,5.864605904E-1
3.570526280E1,-1.930294752E0,1.402195930E0,1.754779816E0
3.572409040E1,-2.523761034E0,2.011542320E0,2.273218632E0
3.574291800E1,-3.044753551E0,2.179722309E0,2.237111568E0
3.576173254E1,-4.492673397E0,2.425958157E0,1.474420071E0
3.578057326E1,-6.487982750E0,2.414638042E0,1.262130737E-1
3.579940087E1,-6.465035915E0,2.942298412E0,-9.818797112E-1
3.581821535E1,-3.790149212E0,2.624167442E0,-4.005417824E-1
3.583705608E1,-2.373364925E0,2.958104610E0,6.085271835E-1
3.585588368E1,-1.143172741E0,3.555388451E0,4.916982651E-1
3.587471129E1,-1.531815529E-1,3.032289505E0,-2.515053749E-1
3.589353889E1,-1.554341793E0,1.819097519E0,-1.832251072E0
3.591236649E1,-3.721189499E0,8.637888432E-1,-5.650295258E0
3.593118097E1,-1.733784199E0,3.123148680E0,-6.553594589E0
3.595002170E1,4.794306755E-1,5.462313652E0,-2.311013222E0
3.596884931E1,3.234620094E0,6.636339188E0,1.780249119E0
3.598766379E1,4.335310936E0,6.344838142E0,5.050446987E0
3.600650452E1,4.555809975E0,4.159075737E0,4.136547089E0
3.602533212E1,5.576180458E0,8.349370956E-2,1.399662971E0
3.604414660E1,8.261606216E0,-2.845474720E0,-7.221622467E-1
3.606298733E1,1.106400681E1,-2.050171614E0,-4.483194351E-1
3.608181493E1,9.152158737E0,-1.739673376E0,-8.408155441E-1
3.610062941E1,8.210158348E0,-8.347680569E-1,-3.011830807E0
3.611947014E1,7.306686878E0,-1.213342667E0,-3.269981861E0
3.613829774E1,8.011707306E0,-6.518466473E-1,-3.693063259E0
3.615711222E1,9.583938599E0,1.994536400E0,-1.688475132E0
3.617595295E1,1.087219048E1,6.062451839E0,3.484225273E0
3.619478056E1,8.982131004E0,8.620182037E0,5.176908493E0
3.621359504E1,9.545769691E0,9.058389664E0,1.536323547E0
3.623243577E1,7.496184826E0,9.635573387E0,1.097871780E0
3.625126337E1,4.473460615E-1,9.609508514E0,-3.092813492E-1
3.627007785E1,-6.073334217E-1,6.959003448E0,-2.179188251E0
3.628891858E1,1.558547139E0,6.484935760E0,-2.700975895E0
3.630774618E1,-3.915470839E0,7.679065704E0,-3.948363781E0
3.632656066E1,-1.388039207E1,3.656066418E0,-4.436377525E0
3.634540139E1,-1.714684868E1,-2.913469553E0,-5.325793266E0
3.636422899E1,-1.660133362E1,-6.429447174E0,-7.637028694E0
3.638304347E1,-1.378946114E1,-5.727536678E0,-9.420720100E0
3.640188420E1,-8.944642067E0,-4.629078388E0,-9.460604668E0
3.642071181E1,-4.787371635E0,-1.273853779E0,-6.428470612E0
3.643952634E1,-2.465819359E0,1.988948822E0,-4.391979218E0
3.645836702E1,-1.671729684E0,3.862298489E0,-4.190397263E0
3.647719462E1,-2.735570669E0,3.678464413E0,-6.441354752E0
3.649602222E1,-3.053637028E0,3.394319534E0,-8.452630043E0
3.651484983E1,-2.592970848E0,3.867449522E0,-7.993487358E0
3.653367743E1,-2.017229319E0,5.084546089E0,-7.005968094E0
3.655249196E1,-9.635305405E-2,5.826949596E0,-5.342187405E0
3.657133264E1,4.304614067E0,4.462792397E0,-3.107519627E0
3.659016024E1,8.999288559E0,2.710509062E0,-2.589378357E-1
3.660897478E1,9.644050598E0,9.967441559E-1,-2.652835846E-1
3.662781550E1,7.918755054E0,-1.421633363E-1,-1.001134872E0
3.664664306E1,2.687571764E0,-7.319947481E-1,1.958246231E-1
3.666545759E1,-1.489443779E0,-1.074227571E0,-5.418691635E-1
3.668429832E1,1.614205837E-1,-1.337390184E0,6.495733261E-1
3.670312592E1,7.200337648E-1,-9.111404419E-1,3.701124191E0
3.672195352E1,-1.966234446E-1,-1.042429328E0,4.516480446E0
3.674078113E1,-1.291895390E0,-1.684196949E0,4.725826263E0
3.675960873E1,-2.419450760E0,-1.593493223E0,4.181620598E0
3.677842321E1,-3.928163528E0,-6.604980230E-1,3.509116173E0
3.679726394E1,-5.544166088E0,-6.954443455E-1,1.709197044E0
3.681609155E1,-6.141327381E0,-2.133379459E0,2.071619034E-1
3.683491915E1,-5.910669327E0,-4.500400066E0,-3.761453629E-1
3.685374681E1,-7.170780659E0,-2.664770603E0,-1.670283318E0
3.687257441E1,-7.872020245E0,1.979849696E0,-8.319196701E-1
3.689140202E1,-6.544067383E0,2.842565060E0,-1.184031487E0
3.691022962E1,-6.307763577E0,1.214972138E0,-1.097961426E0
3.692905722E1,-7.757844448E0,2.674113512E-1,9.503269196E-2
3.694787175E1,-1.011340523E1,5.561447144E-1,4.980630875E-1
3.696671248E1,-1.261248779E1,9.726158381E-1,1.035497665E0
3.698554009E1,-1.439810944E1,2.276426315E0,1.619394302E0
3.700435462E1,-1.490794945E1,5.358829498E0,3.078488350E0
3.702319535E1,-1.525535297E1,7.701749802E0,3.660958290E0
3.704202295E1,-1.545725632E1,8.497722626E0,2.172921181E0
3.706083748E1,-1.509314919E1,1.055300617E1,1.114335060E0
3.707967821E1,-1.385979939E1,1.278987122E1,-1.927003860E-1
3.709850582E1,-1.178154087E1,1.369523048E1,-9.553775787E-1
3.711732035E1,-9.560505867E0,1.380820560E1,-1.590168476E0
3.713616108E1,-8.040197372E0,1.324482250E1,-2.796319962E0
3.715498868E1,-7.444650650E0,1.316727066E1,-4.667361259E0
3.717380316E1,-7.240711212E0,1.314044189E1,-7.296611786E0
3.719264389E1,-6.640950203E0,1.270929527E1,-9.857389450E0
3.721147149E1,-5.185119629E0,1.200491905E1,-1.164163208E1
3.723028603E1,-3.082965136E0,1.048540211E1,-1.075892925E1
3.724912675E1,-2.286996841E-1,9.271459579E0,-9.411898613E0
3.726795436E1,8.812344074E-1,8.299666405E0,-9.365259171E0
3.728676884E1,4.047846794E-2,7.953090668E0,-1.072043896E1
3.730560957E1,-4.542956352E-1,9.409885406E0,-1.205492020E1
3.732443717E1,-1.424608231E0,1.149120998E1,-1.132754040E1
3.734326478E1,-1.624250889E0,1.052868080E1,-1.040355301E1
3.736209238E1,-3.219804764E-1,8.591487885E0,-9.675357819E0
3.738091998E1,2.403287888E-1,6.945500851E0,-8.918641090E0
3.739973446E1,-1.594951153E0,6.684943199E0,-8.246356964E0
3.741857519E1,-4.416004181E0,7.996430874E0,-8.365040779E0
3.743740280E1,-6.283497334E0,8.308349609E0,-9.059951782E0
3.745621733E1,-5.416862965E0,7.865465641E0,-9.596496582E0
3.747505806E1,-2.515690327E0,6.929565907E0,-8.686062813E0
3.749388566E1,-1.244456291E0,5.128190994E0,-7.013608932E0
3.751271326E1,-1.736326456E0,4.128224373E0,-7.262067795E0
3.753154087E1,-3.561415195E0,3.899595261E0,-1.020212746E1
3.755036847E1,-1.735373020E0,3.699480057E0,-1.195422554E1
3.756918300E1,1.412641335E1,1.134401035E1,3.054102421E0
3.758802373E1,1.146752453E1,6.016456604E0,-2.239710569E0
3.760685134E1,9.393453598E0,2.062317371E0,-4.125202179E0
3.762566582E1,1.074195576E1,5.932131290E0,-6.046682358E0
3.764450655E1,6.632186413E0,-5.790230274E0,-1.429314995E1
3.766333420E1,-1.809639782E-1,-7.505257607E0,-1.260937500E1
3.768214868E1,1.899566948E-1,-4.032681465E0,-6.412290096E0
3.770098941E1,3.651469469E0,-1.265282154E0,3.033402443E0
3.771981702E1,4.867057800E0,3.140172958E-1,6.134440422E0
3.773863155E1,1.159937620E0,-4.057183266E-1,4.127179623E0
3.775747228E1,-2.191915751E0,-1.279137611E0,2.851247787E-1
3.777629988E1,-4.817649364E0,-2.196055412E0,-2.106457710E0
3.779511436E1,-2.445266962E0,-1.908455849E0,-1.855930805E0
3.781395509E1,2.798096538E-1,-1.996748924E0,-9.501476288E-1
3.783278274E1,6.512683630E-1,-2.853973389E0,-1.393216133E0
3.785161035E1,4.632144272E-1,-2.659813404E0,-2.066537857E0
3.787043795E1,2.369083166E-1,-2.094019413E0,-1.700535774E0
3.788926561E1,-2.520115972E-1,-1.753104687E0,7.877779007E-2
3.790808009E1,-2.024201751E-1,-1.349986076E0,3.053127289E0
3.792692082E1,-5.290602446E-1,-4.090642929E-1,4.048449039E0
3.794574842E1,-5.223462582E-1,6.855044365E-1,3.865503311E0
3.796457608E1,-8.161398172E-1,6.981115341E-1,2.678331852E0
3.798340368E1,-8.421543837E-1,1.361999512E0,2.823317051E0
3.800223129E1,-1.282235026E0,1.737140179E0,2.533496380E0
3.802105889E1,-1.266754627E0,1.823040485E0,2.352686882E0
3.803988655E1,-5.313913822E-1,2.228430748E0,2.705615997E0
3.805871415E1,-1.832340479E0,2.108035088E0,2.310509205E0
3.807752863E1,-3.831128597E0,1.598350525E0,1.297923565E0
3.809636936E1,-4.492890358E0,1.091204166E0,5.517358780E-1
3.811519702E1,-4.824164391E0,8.094673157E-1,2.463054657E-2
3.813402462E1,-5.848589897E0,7.956099510E-1,-7.305750847E-1
3.815285222E1,-6.857771873E0,1.913280487E0,-1.587112904E0
3.817167983E1,-7.358415604E0,1.779267311E0,-1.502720356E0
3.819050748E1,-6.679277420E0,1.680754185E0,-8.942990303E-1
3.820933509E1,-5.682301044E0,2.805413723E0,-9.073405266E-1
3.822816269E1,-4.358551025E0,3.200998306E0,-1.745248795E0
3.824697722E1,-1.605092525E0,3.639189720E0,-2.388714314E0
3.826581795E1,1.828325987E0,4.405588150E0,-1.859548092E0
3.828464556E1,4.358064651E0,5.178965092E0,-1.391410351E0
3.830347316E1,4.216301441E0,5.384205341E0,-1.881607056E0
3.832230076E1,3.172305584E0,6.202476025E0,-2.869689941E0
3.834112842E1,2.548282623E0,3.955293179E0,-3.024852514E0
3.835995602E1,1.034573078E0,6.411314011E0,-1.924463272E0
3.837878363E1,2.062402248E0,7.877628326E0,-8.634696007E-1
3.839761123E1,7.588947296E0,7.397528172E0,4.008111954E-1
3.841642576E1,1.382716179E1,4.568162441E0,3.012637615E0
3.843526644E1,1.390818977E1,-2.419550419E0,4.753106117E0
3.845409410E1,1.709642601E1,-6.851581097E0,6.462710381E0
3.847290858E1,1.370473480E1,-8.225283623E0,1.039906788E1
3.849174931E1,5.371543884E0,-3.642955780E0,5.700737953E0
3.851057691E1,-1.468266964E0,6.025187492E0,1.607758522E0
3.852939139E1,-1.286010027E0,1.036456108E1,2.214398384E-1
3.854823212E1,3.391163349E0,7.868250370E0,2.344625950E0
3.856705978E1,7.183983803E0,7.687260628E0,5.432355881E0
3.858587425E1,7.321107388E0,1.002129364E1,5.838482857E0
3.860471498E1,5.577990532E0,1.453049183E1,4.258409500E0
3.862354259E1,7.856079340E-1,1.626050949E1,6.481409073E-1
3.864235712E1,-6.486352921E0,9.900728226E0,-5.721732140E0
