"Time (s)","Acceleration x (m/s^2)","Acceleration y (m/s^2)","Acceleration z (m/s^2)"
1.745757300E-2,-3.378067255E0,7.700103283E0,5.175076962E0
1.981080200E-2,-3.369692564E0,7.695915699E0,5.213960648E0
2.216403100E-2,-3.355335474E0,7.681559086E0,5.213960648E0
2.451726000E-2,-3.331407309E0,7.667799950E0,5.238486767E0
2.687048900E-2,-3.318246841E0,7.682157040E0,5.281557560E0
2.922371900E-2,-3.303889751E0,7.711469173E0,5.267200947E0
3.157694800E-2,-3.314657450E0,7.749754429E0,5.315057278E0
3.393017700E-2,-3.287140131E0,7.835896015E0,5.304887772E0
3.628345800E-2,-3.297309637E0,7.874181271E0,5.333601475E0
3.863668700E-2,-3.265006542E0,7.889136314E0,5.357530117E0
4.098991600E-2,-3.227319479E0,7.917850018E0,5.382056236E0
4.334314600E-2,-3.180061340E0,7.880163193E0,5.397609711E0
4.569637500E-2,-3.132802963E0,7.890332699E0,5.388636589E0
4.804960400E-2,-3.108276606E0,7.867002487E0,5.384449005E0
5.040283300E-2,-3.104089260E0,7.843074322E0,5.417948723E0
5.275606200E-2,-3.061018467E0,7.833503246E0,5.389832973E0
5.510929100E-2,-3.013161898E0,7.819744587E0,5.386243820E0
5.746252100E-2,-3.004188776E0,7.814958572E0,5.395814896E0
5.981580200E-2,-3.013161898E0,7.786244869E0,5.391029358E0
6.216903100E-2,-3.002992392E0,7.752745152E0,5.382056236E0
6.452226000E-2,-3.026322365E0,7.747959614E0,5.357530117E0
6.687548900E-2,-3.022135019E0,7.762316704E0,5.395814896E0
6.922871900E-2,-3.013161898E0,7.767700672E0,5.414957523E0
7.158194800E-2,-3.037090063E0,7.767102242E0,5.414957523E0
7.393517700E-2,-3.050250769E0,7.757531166E0,5.380859852E0
7.628840600E-2,-3.069393158E0,7.737790108E0,5.390431404E0
7.864163500E-2,-3.073580742E0,7.694719315E0,5.386243820E0
8.099491600E-2,-3.092125177E0,7.699504852E0,5.361717224E0
8.334814600E-2,-3.092125177E0,7.718647480E0,5.356931686E0
8.570137500E-2,-3.087339401E0,7.713861942E0,5.347360611E0
8.805460400E-2,-3.087339401E0,7.709076405E0,5.342574596E0
9.040783300E-2,-3.063411236E0,7.737790108E0,5.318646431E0
9.276106200E-2,-3.063411236E0,7.718647480E0,5.328217983E0
9.511429100E-2,-3.044268608E0,7.685148239E0,5.338387489E0
9.746752100E-2,-3.072982550E0,7.694719315E0,5.352744102E0
9.982075000E-2,-3.068196774E0,7.685148239E0,5.352744102E0
1.021739790E-1,-3.068794966E0,7.671389580E0,5.391029358E0
1.045272600E-1,-3.064009428E0,7.694719315E0,5.362315655E0
1.068804890E-1,-3.064009428E0,7.704290867E0,5.362315655E0
1.092337190E-1,-3.068794966E0,7.689933777E0,5.371886730E0
1.115869480E-1,-3.101696253E0,7.709076405E0,5.356931686E0
1.139401770E-1,-3.092723370E0,7.737790108E0,5.352146149E0
1.162934060E-1,-3.082553864E0,7.704290867E0,5.361717224E0
1.186466350E-1,-3.120240688E0,7.689335346E0,5.346762180E0
1.209998640E-1,-3.143570662E0,7.689335346E0,5.332405090E0
1.233530940E-1,-3.153740168E0,7.674978733E0,5.351547718E0
1.257063230E-1,-3.162713289E0,7.674978733E0,5.337191105E0
1.280595520E-1,-3.181855917E0,7.679165840E0,5.336592674E0
1.304128330E-1,-3.200400352E0,7.650452137E0,5.350949764E0
1.327660620E-1,-3.190829039E0,7.636095047E0,5.346164227E0
1.351192910E-1,-3.195614576E0,7.621738434E0,5.341378212E0
1.374725210E-1,-3.209373474E0,7.626523972E0,5.322235584E0
1.398257500E-1,-3.209373474E0,7.607381344E0,5.322235584E0
1.421789790E-1,-3.218346357E0,7.621140003E0,5.298307419E0
1.445322080E-1,-3.237488985E0,7.630711555E0,5.302495003E0
1.468854370E-1,-3.246462107E0,7.597211838E0,5.297709465E0
1.492386660E-1,-3.255435228E0,7.578069210E0,5.288137913E0
1.515919480E-1,-3.269792080E0,7.558926582E0,5.292923450E0
1.539451770E-1,-3.273979664E0,7.543971539E0,5.283352375E0
1.562984060E-1,-3.268595695E0,7.519444942E0,5.260022163E0
1.586516350E-1,-3.249453068E0,7.500900745E0,5.260022163E0
1.610048640E-1,-3.272783279E0,7.462017536E0,5.260022163E0
1.633580940E-1,-3.258426189E0,7.457829952E0,5.241477966E0
1.657113230E-1,-3.266801119E0,7.418946743E0,5.212764263E0
1.680645520E-1,-3.266801119E0,7.399804115E0,5.203192711E0
1.704177810E-1,-3.247658491E0,7.409375191E0,5.188836098E0
1.727710620E-1,-3.270988464E0,7.385447025E0,5.184050083E0
1.751242910E-1,-3.266202927E0,7.390232563E0,5.160121918E0
1.774775210E-1,-3.275176048E0,7.380063057E0,5.145765305E0
1.798307500E-1,-3.260818958E0,7.375875950E0,5.155336380E0
1.821839790E-1,-3.265604734E0,7.375875950E0,5.145765305E0
1.845372080E-1,-3.275176048E0,7.375277519E0,5.136193752E0
1.868904370E-1,-3.278765202E0,7.360920429E0,5.107480049E0
1.892436660E-1,-3.273979664E0,7.336992264E0,5.097908497E0
1.915968960E-1,-3.264408350E0,7.336992264E0,5.112265587E0
1.939501770E-1,-3.302095175E0,7.313064098E0,5.112265587E0
1.963034060E-1,-3.302693367E0,7.322635651E0,5.121836662E0
1.986566350E-1,-3.302693367E0,7.327421188E0,5.131408215E0
2.010098640E-1,-3.331407309E0,7.355536938E0,5.121238708E0
2.033630940E-1,-3.317648649E0,7.370491982E0,5.130809784E0
2.057163230E-1,-3.308077335E0,7.399205685E0,5.116453171E0
2.080695520E-1,-3.303291559E0,7.418348312E0,5.115854740E0
2.104227810E-1,-3.313461065E0,7.418348312E0,5.139782906E0
2.127760100E-1,-3.299104214E0,7.451848030E0,5.125426292E0
2.151292390E-1,-3.285345554E0,7.451848030E0,5.164309502E0
2.174825210E-1,-3.281157970E0,7.456633568E0,5.173880577E0
2.198357500E-1,-3.252444267E0,7.466803074E0,5.140381336E0
2.221889790E-1,-3.243471146E0,7.442874908E0,5.203192711E0
2.245422080E-1,-3.224328518E0,7.424330235E0,5.199005604E0
2.268954370E-1,-3.186641455E0,7.438687325E0,5.194219589E0
2.292486660E-1,-3.201596737E0,7.491329670E0,5.217549801E0
2.316018960E-1,-3.168097258E0,7.477570534E0,5.203791142E0
2.339551250E-1,-3.130410194E0,7.506284714E0,5.190032482E0
2.363083540E-1,-3.107080221E0,7.492526054E0,5.224130154E0
2.386616350E-1,-3.078366280E0,7.506882668E0,5.224130154E0
2.410148640E-1,-3.045464993E0,7.527221680E0,5.224728107E0
2.433680940E-1,-3.040679455E0,7.522436142E0,5.224728107E0
2.457213230E-1,-3.011965513E0,7.507481098E0,5.206183910E0
2.480745520E-1,-3.002394199E0,7.527221680E0,5.187041283E0
2.504277810E-1,-3.026322365E0,7.507481098E0,5.200799942E0
2.527810100E-1,-3.006581545E0,7.497909546E0,5.158327579E0
2.551342390E-1,-3.016152859E0,7.526623726E0,5.162514687E0
2.574874690E-1,-3.025724173E0,7.526623726E0,5.148158073E0
2.598406980E-1,-3.025125980E0,7.531409264E0,5.119443893E0
2.621939790E-1,-3.034697294E0,7.555337429E0,5.128417015E0
2.645472080E-1,-3.073580742E0,7.607381344E0,5.137390137E0
2.669004370E-1,-3.073580742E0,7.602595806E0,5.127819061E0
2.692536660E-1,-3.077768087E0,7.607381344E0,5.113461971E0
2.716068960E-1,-3.072982550E0,7.607381344E0,5.094319344E0
2.739601250E-1,-3.068196774E0,7.607381344E0,5.113461971E0
2.763133540E-1,-3.058625460E0,7.593024254E0,5.099104881E0
2.786665830E-1,-3.068196774E0,7.583453178E0,5.099104881E0
2.810198120E-1,-3.068196774E0,7.573882103E0,5.108676434E0
2.833730410E-1,-3.068196774E0,7.559525013E0,5.113461971E0
2.857263230E-1,-3.072982550E0,7.573882103E0,5.108676434E0
2.880795520E-1,-3.058027267E0,7.564310551E0,5.094917774E0
2.904327810E-1,-3.062813044E0,7.569096088E0,5.099104881E0
2.927860100E-1,-3.044268608E0,7.593024254E0,5.089533806E0
2.951392390E-1,-3.044268608E0,7.583453178E0,5.094917774E0
2.974924690E-1,-3.029313564E0,7.560122967E0,5.090131760E0
2.998456980E-1,-3.001197815E0,7.569694519E0,5.095515728E0
3.021989270E-1,-2.958725214E0,7.541578770E0,5.115256786E0
3.045521560E-1,-2.920439959E0,7.508079052E0,5.102096081E0
3.069054370E-1,-2.896511793E0,7.484150887E0,5.116453171E0
3.092586660E-1,-2.848655462E0,7.451249599E0,5.103292465E0
3.116118960E-1,-2.810968399E0,7.427919865E0,5.142175674E0
3.139651250E-1,-2.791825771E0,7.447062492E0,5.113461971E0
3.163183540E-1,-2.758326292E0,7.432705402E0,5.118845940E0
3.186715830E-1,-2.748754978E0,7.423133850E0,5.105087280E0
3.210248120E-1,-2.726023197E0,7.442874908E0,5.133800983E0
3.233780410E-1,-2.721237659E0,7.466803074E0,5.119443893E0
3.257312710E-1,-2.706282377E0,7.452445984E0,5.090730190E0
3.280845000E-1,-2.706880569E0,7.490731239E0,5.105087280E0
3.304377810E-1,-2.706282377E0,7.481160164E0,5.085944653E0
3.327910100E-1,-2.678166628E0,7.495516777E0,5.081159115E0
3.351442390E-1,-2.688336134E0,7.514659405E0,5.105087280E0
3.374974690E-1,-2.659622431E0,7.543971539E0,5.081159115E0
3.398506980E-1,-2.650649309E0,7.549355507E0,5.096114159E0
3.422039270E-1,-2.622533560E0,7.573283672E0,5.100899696E0
3.445571560E-1,-2.590230465E0,7.626523972E0,5.134399414E0
3.469103850E-1,-2.581257343E0,7.626523972E0,5.158925533E0
3.492636140E-1,-2.577069998E0,7.645666599E0,5.167898655E0
3.516168960E-1,-2.572284460E0,7.660023689E0,5.158327579E0
3.539701250E-1,-2.591426849E0,7.683951855E0,5.177470207E0
3.563233540E-1,-2.629113913E0,7.673782349E0,5.162514687E0
3.586765830E-1,-2.662015200E0,7.683353424E0,5.157131195E0
3.610298120E-1,-2.705085993E0,7.706683636E0,5.141577721E0
3.633830410E-1,-2.719442844E0,7.725826263E0,5.132006168E0
3.657362710E-1,-2.729014158E0,7.725826263E0,5.141577721E0
3.680895000E-1,-2.729014158E0,7.744968891E0,5.145765305E0
3.704427290E-1,-2.739183664E0,7.764111042E0,5.184050083E0
3.727960100E-1,-2.715255499E0,7.744968891E0,5.170291424E0
3.751492390E-1,-2.710469961E0,7.721040249E0,5.170291424E0
3.775024690E-1,-2.715853691E0,7.744968891E0,5.213362217E0
3.798556980E-1,-2.725425005E0,7.759325504E0,5.218147755E0
3.822089270E-1,-2.740978241E0,7.778468132E0,5.260620594E0
3.845621560E-1,-2.742174864E0,7.802994728E0,5.318048477E0
3.869153850E-1,-2.760719061E0,7.802994728E0,5.322834015E0
3.892686140E-1,-2.774477959E0,7.811967850E0,5.293521881E0
3.916218440E-1,-2.803191662E0,7.788039684E0,5.293521881E0
3.939751250E-1,-2.821137905E0,7.763513088E0,5.278566837E0
3.963283540E-1,-2.854637384E0,7.749155998E0,5.278566837E0
3.986815830E-1,-2.872583628E0,7.719843864E0,5.259424210E0
4.010348120E-1,-2.867797852E0,7.715058327E0,5.240281582E0
4.033880410E-1,-2.858226538E0,7.725227833E0,5.249852657E0
4.057412710E-1,-2.839084148E0,7.696514130E0,5.226522923E0
4.080945000E-1,-2.796013355E0,7.691728592E0,5.222335339E0
4.104477290E-1,-2.757129908E0,7.686942577E0,5.175076962E0
4.128009580E-1,-2.690729141E0,7.663612843E0,5.156532764E0
4.151541870E-1,-2.586043119E0,7.645666599E0,5.139184952E0
4.175074690E-1,-2.499901533E0,7.631907940E0,5.106881618E0
4.198606980E-1,-2.399402857E0,7.575676441E0,5.094319344E0
4.222139270E-1,-2.303689957E0,7.499105930E0,5.091926575E0
4.245671560E-1,-2.203191519E0,7.452445984E0,5.098506927E0
4.269203850E-1,-2.098505497E0,7.372286797E0,5.119443893E0
4.292736140E-1,-2.014158487E0,7.349554539E0,5.193023205E0
4.316268440E-1,-1.938784599E0,7.345965385E0,5.213362217E0
4.339800730E-1,-1.858624935E0,7.346563816E0,5.243272781E0
4.363333020E-1,-1.755135417E0,7.405188084E0,5.244469166E0
4.386865310E-1,-1.652842283E0,7.559525013E0,5.268397331E0
4.410398120E-1,-1.368096352E0,7.894520283E0,5.624927998E0
4.433930410E-1,-7.920243144E-1,8.449056625E0,6.306283951E0
4.457395520E-1,-6.035895348E-1,8.411369324E0,6.102894306E0
4.480860620E-1,-5.072783828E-1,8.219346046E0,5.836692810E0
4.504390830E-1,-4.169493318E-1,8.056633949E0,5.632704735E0
4.528391350E-1,8.973085321E-3,8.024929047E0,6.018547058E0
4.552391870E-1,2.063809484E-1,7.840083599E0,5.955137253E0
4.576395520E-1,2.123630047E-1,7.411767960E0,5.545964718E0
4.600398640E-1,3.326023519E-1,7.221538544E0,5.558526993E0
4.624401250E-1,4.809573591E-1,7.055835724E0,5.581258774E0
4.648403850E-1,4.402793646E-1,7.068996429E0,5.450850010E0
4.672406460E-1,2.979064286E-1,7.258029461E0,5.322834015E0
4.696409060E-1,7.657032460E-2,7.441080093E0,5.126622677E0
4.720411660E-1,-1.938186288E-1,7.710272789E0,4.919643402E0
4.744414270E-1,-4.935196638E-1,7.993224144E0,4.811966419E0
4.768416870E-1,-7.256234884E-1,8.243273735E0,4.643272400E0
4.792419480E-1,-9.098708034E-1,8.474779129E0,4.481158733E0
4.816422080E-1,-1.098903775E0,8.639286041E0,4.313661098E0
4.840425210E-1,-1.226321578E0,8.748159409E0,4.201198578E0
4.864427810E-1,-1.325025558E0,8.794221878E0,4.127020836E0
4.888430410E-1,-1.405783296E0,8.841479301E0,4.111467361E0
4.912433020E-1,-1.467398524E0,8.840881348E0,4.095914364E0
4.936435620E-1,-1.470987678E0,8.773882866E0,4.082155228E0
4.960438230E-1,-1.455434322E0,8.711071014E0,4.030111313E0
4.984440830E-1,-1.421934843E0,8.682954788E0,4.021138668E0
5.008443440E-1,-1.383649707E0,8.615956306E0,4.022335052E0
5.032446560E-1,-1.330409408E0,8.553742409E0,3.994817495E0
5.056448640E-1,-1.273579836E0,8.497511864E0,4.029513359E0
5.080451770E-1,-1.192822099E0,8.459824562E0,4.064807415E0
5.104454370E-1,-1.116251707E0,8.456234932E0,4.065405846E0
5.128456980E-1,-1.040877819E0,8.480761528E0,4.057030678E0
5.152459580E-1,-9.601200819E-1,8.505288124E0,4.043870449E0
5.176462190E-1,-9.044869542E-1,8.587242126E0,4.039084435E0
5.200464790E-1,-8.189435601E-1,8.626125336E0,4.025325775E0
5.224467390E-1,-7.441678643E-1,8.689535141E0,4.026522160E0
5.248470000E-1,-7.016952634E-1,8.732605934E0,4.021736622E0
5.272473120E-1,-6.592226624E-1,8.737990379E0,4.012763500E0
5.296475730E-1,-5.970092416E-1,8.733802795E0,3.999004841E0
5.320478330E-1,-5.641079545E-1,8.720044136E0,4.024129391E0
5.344480940E-1,-5.306084156E-1,8.705686569E0,4.024727821E0
5.368483540E-1,-5.168496966E-1,8.687142372E0,4.043870449E0
5.392486140E-1,-5.264210105E-1,8.687142372E0,4.053441525E0
5.416488750E-1,-5.126622319E-1,8.701499939E0,4.086941242E0
5.440491350E-1,-5.515456200E-1,8.720642090E0,4.124628067E0
5.464493960E-1,-5.808576941E-1,8.754141808E0,4.152743816E0
5.488497080E-1,-6.197410822E-1,8.810971260E0,4.176073551E0
5.512499690E-1,-6.586244106E-1,8.854042053E0,4.198805332E0
5.536502290E-1,-6.879364848E-1,8.891729355E0,4.236492634E0
5.560504890E-1,-7.172485590E-1,8.944371223E0,4.259822369E0
5.584507500E-1,-7.519445419E-1,9.006584167E0,4.311268330E0
5.608510100E-1,-7.531409264E-1,9.054440498E0,4.363910198E0
5.632512710E-1,-7.585247755E-1,9.078967094E0,4.402195454E0
5.656515310E-1,-7.549355626E-1,9.074181557E0,4.464408875E0
5.680517910E-1,-7.226324677E-1,9.069993973E0,4.517649174E0
5.704521040E-1,-6.849454641E-1,9.056235313E0,4.542175770E0
5.728209580E-1,-6.711867452E-1,9.032905579E0,4.595416069E0
5.751741870E-1,-6.484549642E-1,9.014361382E0,4.677370071E0
5.775274160E-1,-6.209374666E-1,8.982057571E0,4.759324074E0
5.798806460E-1,-5.790630579E-1,8.939585686E0,4.817948341E0
5.822338750E-1,-5.940182209E-1,8.944371223E0,4.875974178E0
5.845871040E-1,-6.041877270E-1,8.935398102E0,4.923830986E0
5.869403330E-1,-6.239284873E-1,8.940183640E0,4.966303349E0
5.892935620E-1,-6.526423693E-1,8.939585686E0,4.971088886E0
5.916468440E-1,-6.909275651E-1,8.944371223E0,4.989633560E0
5.940000730E-1,-7.471588850E-1,8.915059090E0,4.960321426E0
5.963533020E-1,-8.027920127E-1,8.909076691E0,4.906482697E0
5.987065310E-1,-8.644071817E-1,8.908478737E0,4.901099205E0
6.010597600E-1,-8.871390224E-1,8.912666321E0,4.852046013E0
6.034129890E-1,-9.254241586E-1,8.960522652E0,4.826921463E0
6.057662190E-1,-9.960124493E-1,9.026325226E0,4.773082733E0
6.081194480E-1,-1.053440213E0,9.073583603E0,4.771886349E0
6.104726770E-1,-1.109671474E0,9.120243073E0,4.713262558E0
6.128259060E-1,-1.167099237E0,9.190832138E0,4.663611412E0
6.151791870E-1,-1.243071318E0,9.228518486E0,4.648057938E0
6.175324160E-1,-1.310070395E0,9.266205788E0,4.642076015E0
6.198856460E-1,-1.371685624E0,9.284749985E0,4.650450706E0
6.222388750E-1,-1.390229940E0,9.303294182E0,4.616353035E0
6.245921040E-1,-1.413560033E0,9.284152031E0,4.606781960E0
6.269453330E-1,-1.436890006E0,9.278767586E0,4.587040901E0
6.292985620E-1,-1.446461320E0,9.250054359E0,4.606781960E0
6.316517910E-1,-1.465005636E0,9.226125717E0,4.596612453E0
6.340050730E-1,-1.474576950E0,9.240483284E0,4.587040901E0
6.363583020E-1,-1.483550072E0,9.239884377E0,4.548755646E0
6.387115310E-1,-1.488335729E0,9.273384094E0,4.519443989E0
6.410647600E-1,-1.502094388E0,9.315856934E0,4.490131855E0
6.434179890E-1,-1.516451359E0,9.358329773E0,4.441677094E0
6.457712190E-1,-1.487139225E0,9.382257462E0,4.374678135E0
6.481244480E-1,-1.486541033E0,9.415757179E0,4.345963955E0
6.504776770E-1,-1.490728498E0,9.434301376E0,4.287938118E0
6.528309060E-1,-1.471585870E0,9.439086914E0,4.255036831E0
6.551841350E-1,-1.433300734E0,9.458230019E0,4.235894203E0
6.575373640E-1,-1.405185103E0,9.468399048E0,4.236492634E0
6.598906460E-1,-1.395613790E0,9.482755661E0,4.236492634E0
6.622438750E-1,-1.372283816E0,9.482755661E0,4.236492634E0
6.645971040E-1,-1.358525038E0,9.521040916E0,4.241278172E0
6.669503330E-1,-1.338186026E0,9.506684303E0,4.194019794E0
6.693035620E-1,-1.286142230E0,9.507282257E0,4.170690060E0
6.716567910E-1,-1.252044439E0,9.526425362E0,4.127619267E0
6.740100210E-1,-1.218544960E0,9.559925079E0,4.070789337E0
6.763632500E-1,-1.170090318E0,9.559925079E0,4.018745422E0
6.787165310E-1,-1.127019525E0,9.579067230E0,3.990031719E0
6.810697600E-1,-1.125823021E0,9.592825890E0,3.903890133E0
6.834229890E-1,-1.077368379E0,9.559925079E0,3.851846218E0
6.857762190E-1,-1.000199914E0,9.526425362E0,3.790829182E0
6.881294480E-1,-9.511470199E-1,9.498309135E0,3.729214191E0
6.904826770E-1,-8.739784956E-1,9.460023880E0,3.668197155E0
6.928359060E-1,-7.878368497E-1,9.417551994E0,3.631108284E0
6.951891350E-1,-7.298108935E-1,9.394221306E0,3.570091486E0
6.975423640E-1,-6.669993401E-1,9.375079155E0,3.494119167E0
6.998956460E-1,-6.089733839E-1,9.394221306E0,3.437289715E0
7.022488750E-1,-5.467599630E-1,9.437891006E0,3.366103172E0
7.046021040E-1,-4.887340367E-1,9.480362892E0,3.247060299E0
7.069553330E-1,-4.025924206E-1,9.524032593E0,3.166302681E0
7.093085620E-1,-3.445664644E-1,9.514460564E0,3.109472990E0
7.116617910E-1,-2.434697002E-1,9.443274498E0,3.034697294E0
7.140150210E-1,-1.190429255E-1,9.434301376E0,2.979064226E0
7.163682500E-1,-1.316052489E-2,9.373284340E0,2.952144861E0
7.187214790E-1,8.733802289E-2,9.345169067E0,2.920439959E0
7.210747600E-1,1.645065546E-1,9.273982048E0,2.874378204E0
7.234279890E-1,2.685943544E-1,9.289535522E0,2.856431961E0
7.257812190E-1,3.451646566E-1,9.314062119E0,2.823530674E0
7.281344480E-1,4.157529473E-1,9.343374252E0,2.815155745E0
7.304876770E-1,4.725824594E-1,9.434301376E0,2.776870728E0
7.328409060E-1,5.240281820E-1,9.515657425E0,2.772084951E0
7.351941350E-1,5.796613097E-1,9.621540070E0,2.776870728E0
7.375473640E-1,5.976074338E-1,9.731609344E0,2.771486759E0
7.399005940E-1,5.964110494E-1,9.837491989E0,2.775674343E0
7.422538750E-1,5.904290080E-1,9.923633575E0,2.779861689E0
7.446071040E-1,5.940182209E-1,9.990633011E0,2.803191662E0
7.469603330E-1,5.928218365E-1,1.003848934E1,2.841476917E0
7.493135620E-1,5.736792088E-1,1.012881851E1,2.821137905E0
7.516667910E-1,5.347958803E-1,1.019103146E1,2.839682341E0
7.540200210E-1,4.821537733E-1,1.023828983E1,2.843271494E0
7.563732500E-1,4.390829504E-1,1.029990482E1,2.818146944E0
7.587264790E-1,3.637090325E-1,1.033220863E1,2.782852650E0
7.610797080E-1,2.925225794E-1,1.035075283E1,2.752942562E0
7.634329370E-1,2.177468538E-1,1.033519936E1,2.699702263E0
7.657862190E-1,1.519442350E-1,1.036271667E1,2.660220623E0
7.681394480E-1,4.905286431E-2,1.030947590E1,2.620738983E0
7.704926770E-1,-3.170489892E-2,1.027956581E1,2.585444927E0
7.728459060E-1,-1.052841991E-1,1.019701385E1,2.517847538E0
7.751991350E-1,-1.746760458E-1,1.009591675E1,2.459821701E0
7.775523640E-1,-2.344966233E-1,1.001815033E1,2.407179594E0
7.799055940E-1,-3.044866920E-1,9.926624298E0,2.387438774E0
7.822588230E-1,-3.732803464E-1,9.830313683E0,2.334198475E0
7.846121040E-1,-4.295116663E-1,9.791430473E0,2.300100803E0
7.869653330E-1,-5.473581553E-1,9.771091461E0,2.274976015E0
7.893185620E-1,-6.418746710E-1,9.793823242E0,2.263610125E0
7.916717910E-1,-7.369893789E-1,9.826126099E0,2.261815548E0
7.940250210E-1,-8.374879360E-1,9.878170013E0,2.269592285E0
7.963782500E-1,-9.415757060E-1,9.924830437E0,2.253440619E0
7.987314790E-1,-1.055832982E0,9.976275444E0,2.242074728E0
8.010847080E-1,-1.155733347E0,1.001815033E1,2.216351986E0
8.034379370E-1,-1.278963685E0,1.001635551E1,2.190629244E0
8.057911660E-1,-1.372882009E0,1.001515961E1,2.140978098E0
8.081444480E-1,-1.481157184E0,9.976275444E0,2.125424623E0
8.104976770E-1,-1.593619823E0,9.936196327E0,2.061416626E0
8.128509060E-1,-1.672582984E0,9.901499748E0,1.998605132E0
8.152041350E-1,-1.780260086E0,9.876375198E0,1.920240164E0
8.175573640E-1,-1.864008784E0,9.870393753E0,1.823330879E0
8.199105940E-1,-1.985444546E0,9.854242325E0,1.735394597E0
8.222638230E-1,-2.073979139E0,9.833903313E0,1.662413478E0
8.246170520E-1,-2.182254314E0,9.813564301E0,1.631905079E0
8.269702810E-1,-2.285743713E0,9.778269768E0,1.578066587E0
8.293235620E-1,-2.388635159E0,9.723833084E0,1.514656782E0
8.316767910E-1,-2.525026083E0,9.674779892E0,1.493719578E0
8.340300210E-1,-2.605185747E0,9.654440880E0,1.453639746E0
8.363832500E-1,-2.703291416E0,9.614959717E0,1.404586911E0
8.387364790E-1,-2.819941521E0,9.556335449E0,1.341177106E0
8.410897080E-1,-2.937189817E0,9.512067795E0,1.286740422E0
8.434429370E-1,-3.068794966E0,9.491130829E0,1.232303619E0
8.457961660E-1,-3.190829039E0,9.470791817E0,1.182652593E0
8.481494480E-1,-3.332005501E0,9.440283775E0,1.137787223E0
8.505026770E-1,-3.469592810E0,9.471988678E0,1.073180914E0
8.528559060E-1,-3.610769272E0,9.441479683E0,1.033101201E0
8.552091350E-1,-3.762115479E0,9.468997002E0,1.016351461E0
8.575623640E-1,-3.918845177E0,9.491130829E0,9.948160052E-1
8.599155940E-1,-4.037290096E0,9.480362892E0,1.007378340E0
8.622688230E-1,-4.211966038E0,9.492925644E0,9.858429432E-1
8.646220520E-1,-4.307679176E0,9.497113228E0,1.018146038E0
8.669752810E-1,-4.436293125E0,9.524630547E0,1.030110121E0
8.693285620E-1,-4.545764923E0,9.552147865E0,1.037886858E0
8.716817910E-1,-4.622334957E0,9.580264091E0,1.046261668E0
8.740350210E-1,-4.697709084E0,9.583852768E0,1.021137118E0
8.763882500E-1,-4.778466702E0,9.607182503E0,1.034297585E0
8.787414790E-1,-4.845465660E0,9.582656860E0,1.062413216E0
8.810947080E-1,-4.877768993E0,9.496515274E0,1.086341500E0
8.834479370E-1,-4.873581409E0,9.406186104E0,1.158724308E0
8.858011660E-1,-4.887340069E0,9.287142754E0,1.231705427E0
8.881543960E-1,-4.868197441E0,9.158528328E0,1.299900889E0
8.905076770E-1,-4.825725079E0,9.044869423E0,1.363908887E0
8.928609060E-1,-4.764110088E0,8.955139160E0,1.436890006E0
8.952141350E-1,-4.699503899E0,8.875576973E0,1.587637782E0
8.975673640E-1,-4.633700848E0,8.814560890E0,1.661217093E0
8.999205940E-1,-4.564309120E0,8.787042618E0,1.782054663E0
9.022738230E-1,-4.493721008E0,8.740383148E0,1.884347796E0
9.046270520E-1,-4.400999069E0,8.770891190E0,2.005185366E0
9.069802810E-1,-4.317848682E0,8.781659126E0,2.112264156E0
9.093335100E-1,-4.219742775E0,8.759525299E0,2.233700037E0
9.116867910E-1,-4.108476639E0,8.757132530E0,2.379063845E0
9.140400210E-1,-3.968496323E0,8.745168686E0,2.539382935E0
9.163932500E-1,-3.842873096E0,8.713463783E0,2.705085993E0
9.187464790E-1,-3.688536167E0,8.711071014E0,2.846262455E0
9.210997080E-1,-3.549154282E0,8.703892708E0,2.992224693E0
9.234529370E-1,-3.393620729E0,8.706285477E0,3.109472990E0
9.258061660E-1,-3.224926710E0,8.679964066E0,3.236890793E0
9.281593960E-1,-3.055634499E0,8.696115494E0,3.311068296E0
9.305126250E-1,-2.881556749E0,8.665008545E0,3.419343472E0
9.328659060E-1,-2.735594511E0,8.623134613E0,3.483949661E0
9.352191350E-1,-2.551347256E0,8.596813202E0,3.553939819E0
9.375723640E-1,-2.453241348E0,8.574081421E0,3.627519131E0
9.399255940E-1,-2.330609322E0,8.571090698E0,3.686741590E0
9.422788230E-1,-2.203789711E0,8.563314438E0,3.795016766E0
9.446320520E-1,-2.110469580E0,8.574081421E0,3.863212109E0
9.469852810E-1,-2.026720762E0,8.595019341E0,3.964907169E0
9.493385100E-1,-1.938784599E0,8.639286041E0,4.047459602E0
9.516917390E-1,-1.878963947E0,8.702695847E0,4.124628067E0
9.540450210E-1,-1.814357758E0,8.775676727E0,4.192225456E0
9.563982500E-1,-1.782652855E0,8.867202759E0,4.249652863E0
9.587514790E-1,-1.765304923E0,8.953344345E0,4.287340164E0
9.611047080E-1,-1.747956991E0,9.064012527E0,4.320839405E0
9.634579370E-1,-1.744367719E0,9.178867340E0,4.314857483E0
9.658111660E-1,-1.703689694E0,9.298508644E0,4.357928276E0
9.681643960E-1,-1.676172256E0,9.390034676E0,4.357928276E0
9.705176250E-1,-1.671984792E0,9.446864128E0,4.328616142E0
9.728709060E-1,-1.630110383E0,9.495318413E0,4.352544308E0
9.752241350E-1,-1.601994753E0,9.557532310E0,4.342973232E0
9.775773640E-1,-1.569093466E0,9.610772133E0,4.328616142E0
9.799305940E-1,-1.555932879E0,9.672985077E0,4.347758770E0
9.822838230E-1,-1.537986755E0,9.754341125E0,4.347160339E0
9.846370520E-1,-1.514656782E0,9.831509590E0,4.328018188E0
9.869902810E-1,-1.515254974E0,9.922437668E0,4.308277130E0
9.893435100E-1,-1.491924882E0,1.000319481E1,4.283750534E0
9.916967390E-1,-1.482951880E0,1.008455086E1,4.269393921E0
9.940499690E-1,-1.482951880E0,1.012762165E1,4.225724697E0
9.964032500E-1,-1.535593987E0,1.017009449E1,4.234099865E0
9.987564790E-1,-1.578066587E0,1.015035343E1,4.243072987E0
1.001109708E0,-1.525424480E0,1.009352398E1,4.249054909E0
1.003462937E0,-1.482951880E0,1.005165005E1,4.288536549E0
1.005816166E0,-1.459621787E0,9.990034103E0,4.347160339E0
1.008169396E0,-1.441675663E0,9.928419113E0,4.448257446E0
1.010522625E0,-1.456630826E0,9.862018585E0,4.534996986E0
1.012875854E0,-1.485942841E0,9.790832520E0,4.659423828E0
1.015229083E0,-1.491924882E0,9.704689980E0,4.785047054E0
1.017582364E0,-1.473978758E0,9.614959717E0,4.881956577E0
1.019935594E0,-1.479960799E0,9.486943245E0,5.065007210E0
1.022288823E0,-1.448255897E0,9.411569595E0,5.196014404E0
1.024642052E0,-1.421336651E0,9.331410408E0,5.335994720E0
1.026995281E0,-1.380658627E0,9.284749985E0,5.490331650E0
1.029348510E0,-1.368096352E0,9.285946846E0,5.619544029E0
1.031701739E0,-1.322632670E0,9.282357216E0,5.745167255E0
1.034054969E0,-1.281954765E0,9.297312737E0,5.841478348E0
1.036408250E0,-1.250848055E0,9.327222824E0,5.952146530E0
1.038761479E0,-1.186241865E0,9.381061554E0,6.034698486E0
1.041114708E0,-1.139581800E0,9.429515839E0,6.078367710E0
1.043467937E0,-1.082752228E0,9.468399048E0,6.069394588E0
1.045821166E0,-1.016351461E0,9.492327690E0,6.031707764E0
1.048174396E0,-9.780662656E-1,9.564111710E0,5.973681927E0
1.050527625E0,-9.571290612E-1,9.563513756E0,5.858826160E0
1.052880854E0,-9.463613629E-1,9.591629982E0,5.738586903E0
1.055234083E0,-9.439685345E-1,9.605388641E0,5.599802971E0
1.057587364E0,-9.613165259E-1,9.642477036E0,5.464608669E0
1.059940594E0,-9.972088337E-1,9.679565430E0,5.325226784E0
1.062293823E0,-1.061216831E0,9.668199539E0,5.166104317E0
1.064647052E0,-1.163509965E0,9.666405678E0,4.992026329E0
1.067000281E0,-1.259821177E0,9.664012909E0,4.807778835E0
1.069353510E0,-1.380060434E0,9.662218094E0,4.633102894E0
1.071706739E0,-1.491326690E0,9.650253296E0,4.473381996E0
1.074059969E0,-1.640878081E0,9.662218094E0,4.317848682E0
1.076413198E0,-1.789831281E0,9.659825325E0,4.176671982E0
1.078766479E0,-1.944766641E0,9.667601585E0,4.059423447E0
1.081119708E0,-2.117648125E0,9.678967476E0,3.927220106E0
1.083472937E0,-2.282154560E0,9.629316330E0,3.838685751E0
1.085826166E0,-2.465803623E0,9.631709099E0,3.750151396E0
1.088179396E0,-2.682354212E0,9.591031075E0,3.669393539E0
1.090532625E0,-2.922832966E0,9.531210899E0,3.637688637E0
1.092885854E0,-3.201596737E0,9.489934921E0,3.634099483E0
1.095239083E0,-3.471985579E0,9.434899330E0,3.630510092E0
1.097579239E0,-3.717249870E0,9.355937004E0,3.613162279E0
1.099945594E0,-3.933202267E0,9.329615593E0,3.514458179E0
1.102298823E0,-4.097708702E0,9.322437286E0,3.416352510E0
1.104638927E0,-4.228715897E0,9.296713829E0,3.346960783E0
1.107005281E0,-4.325624943E0,9.285347939E0,3.192623615E0
1.109358510E0,-4.384249210E0,9.231510162E0,3.033500910E0
1.111711739E0,-4.381856441E0,9.187840462E0,2.895315409E0
1.114064969E0,-4.359124660E0,9.086744308E0,2.747558594E0
1.116418198E0,-4.298706055E0,8.966505051E0,2.599801779E0
1.118771479E0,-4.229313850E0,8.837890625E0,2.477169752E0
1.121124708E0,-4.174279213E0,8.713463783E0,2.383251429E0
1.123477937E0,-4.149154663E0,8.607581139E0,2.360519648E0
1.125831166E0,-4.147958279E0,8.540582657E0,2.341377020E0
1.128184396E0,-4.047459602E0,8.417351723E0,2.358126640E0
1.130537625E0,-4.014558315E0,8.308478355E0,2.422134638E0
1.132890854E0,-4.023531437E0,8.227122307E0,2.470589399E0
1.135244135E0,-4.024129391E0,8.160721779E0,2.542972326E0
1.137597312E0,-4.039084435E0,8.079963684E0,2.644667149E0
1.139950594E0,-4.039084435E0,7.999206066E0,2.702693224E0
1.142303823E0,-4.072584152E0,7.913064480E0,2.760120869E0
1.144657052E0,-4.068396568E0,7.813164234E0,2.847458839E0
1.147010281E0,-4.078566074E0,7.746763229E0,2.934198856E0
1.149363510E0,-4.059423447E0,7.656434059E0,3.006581545E0
1.151716739E0,-4.031906128E0,7.581060410E0,3.098705292E0
1.154069969E0,-3.999004841E0,7.490133286E0,3.176471949E0
1.156423198E0,-3.975674868E0,7.386045456E0,3.254238844E0
1.158776479E0,-3.951746702E0,7.300501823E0,3.293720484E0
1.161129708E0,-3.908675671E0,7.229315281E0,3.337987661E0
1.163482937E0,-3.875176191E0,7.153343201E0,3.377469063E0
1.165836166E0,-3.842274904E0,7.110870838E0,3.397209883E0
1.168189396E0,-3.808775425E0,7.092326164E0,3.412763357E0
1.170542625E0,-3.775874138E0,7.087540627E0,3.427120209E0
1.172895854E0,-3.742972851E0,7.092924595E0,3.442075491E0
1.175249083E0,-3.742972851E0,7.097710133E0,3.437289715E0
1.177602364E0,-3.724428415E0,7.098308563E0,3.452244759E0
1.179955594E0,-3.729214191E0,7.097710133E0,3.447459221E0
1.182308823E0,-3.734597921E0,7.145566463E0,3.461217880E0
1.184662052E0,-3.759124279E0,7.198208809E0,3.484548092E0
1.187015281E0,-3.778266907E0,7.231708050E0,3.483949661E0
1.189368510E0,-3.802793503E0,7.302894592E0,3.477967739E0
1.191721739E0,-3.836891174E0,7.336394310E0,3.520440340E0
1.194074969E0,-3.846462488E0,7.388438225E0,3.486342669E0
1.196428198E0,-3.850649834E0,7.374081135E0,3.443271875E0
1.198781479E0,-3.839882135E0,7.354938507E0,3.410370588E0
1.201134708E0,-3.824927092E0,7.339983463E0,3.338585854E0
1.203487937E0,-3.842873096E0,7.268198967E0,3.324228764E0
1.205841166E0,-3.851248026E0,7.225128174E0,3.296113253E0
1.208194396E0,-3.869792461E0,7.186244488E0,3.281756163E0
1.210547625E0,-3.878765583E0,7.143173695E0,3.281756163E0
1.212900854E0,-3.883551121E0,7.128817081E0,3.291327477E0
1.215254083E0,-3.911666870E0,7.100102901E0,3.320041418E0
1.217607312E0,-3.964308977E0,7.099504948E0,3.323630571E0
1.219960594E0,-3.973880291E0,7.061817646E0,3.381656647E0
1.222313823E0,-4.017549038E0,7.042675018E0,3.457628727E0
1.224667052E0,-4.022933006E0,7.009773731E0,3.520440340E0
1.227020281E0,-4.037888050E0,7.004988194E0,3.563511133E0
1.229373510E0,-4.043272018E0,7.009773731E0,3.611367464E0
1.231726739E0,-4.030709743E0,7.015157700E0,3.683152199E0
1.234079969E0,-4.022335052E0,7.058826923E0,3.745963812E0
1.236433198E0,-4.000201225E0,7.078567505E0,3.817748547E0
1.238786479E0,-3.954737663E0,7.122236729E0,3.914059639E0
1.241139708E0,-3.933202267E0,7.161718369E0,4.015156269E0
1.243492937E0,-3.882354736E0,7.167700291E0,4.111467361E0
1.245846166E0,-3.835694790E0,7.187440872E0,4.150351048E0
1.248199396E0,-3.789632797E0,7.183253765E0,4.228117466E0
1.250552625E0,-3.704687595E0,7.155735970E0,4.277170658E0
1.252905854E0,-3.647858143E0,7.122834682E0,4.287938118E0
1.255259083E0,-3.557528973E0,7.095317364E0,4.289134502E0
1.257612364E0,-3.495913982E0,7.105486870E0,4.271188259E0
1.259965594E0,-3.410968781E0,7.163512707E0,4.247858524E0
1.262318823E0,-3.362514019E0,7.258627415E0,4.185645103E0
1.264672052E0,-3.334398270E0,7.339983463E0,4.118047714E0
1.267025281E0,-3.257229805E0,7.402196884E0,4.022933006E0
1.269378510E0,-3.190829039E0,7.450053215E0,3.956532240E0
1.271731739E0,-3.141177893E0,7.464410305E0,3.837489367E0
1.274084969E0,-3.073580742E0,7.450053215E0,3.747160196E0
1.276438198E0,-2.981456995E0,7.398009300E0,3.667000771E0
1.278791479E0,-2.900100946E0,7.350750923E0,3.625126362E0
1.281144708E0,-2.870190859E0,7.298109055E0,3.558725595E0
1.283497937E0,-2.807379246E0,7.278966427E0,3.507279873E0
1.285851166E0,-2.745165825E0,7.260422230E0,3.489333630E0
1.288204396E0,-2.707478762E0,7.275377274E0,3.479762316E0
1.290557625E0,-2.660818815E0,7.337590694E0,3.475574970E0
1.292910854E0,-2.603989124E0,7.348358154E0,3.509672642E0
1.295264083E0,-2.590828657E0,7.415357590E0,3.518645763E0
1.297617364E0,-2.511865616E0,7.478767395E0,3.586841106E0
1.299970594E0,-2.461616278E0,7.537391186E0,3.654438496E0
1.302323823E0,-2.383251429E0,7.596015453E0,3.756133318E0
1.304677052E0,-2.324028969E0,7.678567886E0,3.857230186E0
1.307030281E0,-2.231307030E0,7.723433495E0,3.992424488E0
1.309383510E0,-2.162513494E0,7.791628838E0,4.103092670E0
1.311736739E0,-2.079961061E0,7.874181271E0,4.223930359E0
1.314089969E0,-1.983051777E0,7.909475327E0,4.354339123E0
1.316443198E0,-1.867598057E0,7.973483086E0,4.484747887E0
1.318796479E0,-1.779661894E0,8.023134232E0,4.600799561E0
1.321149708E0,-1.663609982E0,8.072187424E0,4.703093052E0
1.323502937E0,-1.570289850E0,8.107481003E0,4.771288395E0
1.325856166E0,-1.467398524E0,8.132605553E0,4.859224796E0
1.328209396E0,-1.336391449E0,8.167900085E0,4.942375183E0
1.330562625E0,-1.219741344E0,8.226524353E0,5.006382942E0
1.332915854E0,-1.102493048E0,8.290532112E0,5.088935375E0
1.335269083E0,-9.948160052E-1,8.339585304E0,5.118845940E0
1.337622312E0,-9.248259664E-1,8.416753769E0,5.152943611E0
1.339975594E0,-8.309076428E-1,8.484949112E0,5.158925533E0
1.342328823E0,-7.417750359E-1,8.581260681E0,5.144568920E0
1.344682052E0,-6.939185858E-1,8.638688087E0,5.106881618E0
1.347035281E0,-6.616154313E-1,8.739784241E0,5.091926575E0
1.349388510E0,-6.424728632E-1,8.797212601E0,5.024927616E0
1.351741739E0,-6.556333899E-1,8.867800713E0,4.937589645E0
1.354094969E0,-7.034898400E-1,8.977272034E0,4.874179840E0
1.356448198E0,-7.788637877E-1,9.109476089E0,4.770689964E0
1.358801479E0,-8.973084688E-1,9.208179474E0,4.686941147E0
1.361154708E0,-1.010369420E0,9.330811501E0,4.564309120E0
1.363507937E0,-1.128215909E0,9.429515839E0,4.475774765E0
1.365861166E0,-1.260419369E0,9.489336014E0,4.377070904E0
1.368214396E0,-1.396810174E0,9.525827408E0,4.278964996E0
1.370567625E0,-1.526620865E0,9.461818695E0,4.158127785E0
1.372920854E0,-1.658226132E0,9.464810371E0,4.069592953E0
1.375274083E0,-1.798804402E0,9.434301376E0,4.005585194E0
1.377627364E0,-1.939382792E0,9.384650230E0,3.927220106E0
1.379980594E0,-2.109273195E0,9.378069878E0,3.866801500E0
1.382333823E0,-2.245664120E0,9.376275063E0,3.817150354E0
1.384687052E0,-2.373680115E0,9.398408890E0,3.762115479E0
1.387040281E0,-2.482553482E0,9.426525116E0,3.755535126E0
1.389393510E0,-2.600998163E0,9.453444481E0,3.724428415E0
1.391746739E0,-2.714657307E0,9.461818695E0,3.732205153E0
1.394099969E0,-2.795415163E0,9.485149384E0,3.731008768E0
1.396453198E0,-2.894717216E0,9.464810371E0,3.720241070E0
1.398806479E0,-2.965903759E0,9.431310654E0,3.744169235E0
1.401159708E0,-3.008376360E0,9.406784058E0,3.762713671E0
1.403512937E0,-3.017947674E0,9.401998520E0,3.762713671E0
1.405866166E0,-3.035893679E0,9.344570160E0,3.748356581E0
1.408219396E0,-3.031108141E0,9.315856934E0,3.738785267E0
1.410572625E0,-3.010769129E0,9.277571678E0,3.705285788E0
1.412925854E0,-2.981456995E0,9.234500885E0,3.662813187E0
1.415279083E0,-2.961716175E0,9.196215630E0,3.639483213E0
1.417632364E0,-2.941975355E0,9.157930374E0,3.616153240E0
1.419985594E0,-2.912663460E0,9.096315384E0,3.583251953E0
1.422338823E0,-2.902493954E0,9.067601204E0,3.579064369E0
1.424692052E0,-2.883949518E0,9.043673515E0,3.594019651E0
1.427045281E0,-2.868994236E0,9.020342827E0,3.594019651E0
1.429398510E0,-2.851048231E0,9.005986214E0,3.637688637E0
1.431751739E0,-2.846860647E0,9.020941734E0,3.671188116E0
1.434104969E0,-2.828316450E0,9.040083885E0,3.700500250E0
1.436458250E0,-2.805584431E0,9.074181557E0,3.733999729E0
1.438811479E0,-2.772084951E0,9.064610481E0,3.715455294E0
1.441164708E0,-2.763710260E0,9.089137077E0,3.754338741E0
1.443517937E0,-2.720639229E0,9.117850304E0,3.735196114E0
1.445871166E0,-2.682952404E0,9.147162437E0,3.735794306E0
1.448224396E0,-2.655434847E0,9.190233231E0,3.754936934E0
1.450577625E0,-2.622533560E0,9.262018204E0,3.716053486E0
1.452930854E0,-2.556730986E0,9.320044518E0,3.721437454E0
1.455284083E0,-2.499901533E0,9.344570160E0,3.688536167E0
1.457637364E0,-2.438884497E0,9.402596474E0,3.689134359E0
1.459990594E0,-2.395215511E0,9.402596474E0,3.637090445E0
1.462343823E0,-2.337189436E0,9.378668785E0,3.589832067E0
1.464697052E0,-2.293520451E0,9.359525681E0,3.518645763E0
1.467050281E0,-2.225325108E0,9.317052841E0,3.471985579E0
1.469403510E0,-2.196611166E0,9.336195946E0,3.428914785E0
1.471756739E0,-2.199602127E0,9.306883812E0,3.367299557E0
1.474109969E0,-2.184647083E0,9.278169632E0,3.329014540E0
1.476463250E0,-2.174477577E0,9.263813019E0,3.271586657E0
1.478816479E0,-2.187638044E0,9.277571678E0,3.228515863E0
1.481169708E0,-2.196611166E0,9.315258980E0,3.160918713E0
1.483522937E0,-2.191825628E0,9.377471924E0,3.131606579E0
1.485876166E0,-2.191825628E0,9.448657990E0,3.073580742E0
1.488229396E0,-2.197209358E0,9.534799576E0,3.039483070E0
1.490582625E0,-2.173281193E0,9.591629982E0,3.005983353E0
1.492935906E0,-2.139781713E0,9.597013474E0,2.986840963E0
1.495289135E0,-2.116451740E0,9.577870369E0,3.016152859E0
1.497642364E0,-2.068595171E0,9.559326172E0,2.997608662E0
1.499995594E0,-2.030908108E0,9.564710617E0,3.002992392E0
1.502348823E0,-1.998006940E0,9.569496155E0,3.008376360E0
1.504702052E0,-1.965105653E0,9.598808289E0,3.032902718E0
1.507055281E0,-1.904088616E0,9.642477036E0,3.038286448E0
1.509408510E0,-1.857428551E0,9.686145782E0,3.047857761E0
1.511761791E0,-1.801197290E0,9.729815483E0,3.048455954E0
1.514115021E0,-1.744965911E0,9.787840843E0,3.063411236E0
1.516468250E0,-1.688734531E0,9.841081619E0,3.058625460E0
1.518821479E0,-1.599601984E0,9.904491425E0,3.059821844E0
1.521174708E0,-1.543370605E0,9.995418549E0,3.069393158E0
1.523527937E0,-1.472782373E0,1.004865837E1,3.050848961E0
1.525881166E0,-1.415952802E0,1.013061333E1,3.017349243E0
1.528234396E0,-1.350748420E0,1.021675491E1,3.013161898E0
1.530587677E0,-1.284347534E0,1.029392338E1,2.965305567E0
1.532940906E0,-1.232303619E0,1.035135078E1,2.932404041E0
1.535294135E0,-1.170688510E0,1.041416264E1,2.894717216E0
1.537647364E0,-1.112662554E0,1.039980507E1,2.847458839E0
1.540000594E0,-1.045663476E0,1.043330479E1,2.790629387E0
1.542353823E0,-9.684949517E-1,1.041476059E1,2.729612350E0
1.544707052E0,-9.439685345E-1,1.041954613E1,2.686541557E0
1.547060281E0,-9.104689956E-1,1.041954613E1,2.644068956E0
1.549413562E0,-8.721838593E-1,1.045304585E1,2.615355253E0
1.551766791E0,-8.338986635E-1,1.045842934E1,2.586641312E0
1.554120021E0,-8.147560954E-1,1.050628567E1,2.548356056E0
1.556473250E0,-8.153542876E-1,1.057747269E1,2.523829699E0
1.558826479E0,-8.063812256E-1,1.064925671E1,2.513660192E0
1.561179708E0,-7.974081635E-1,1.068275642E1,2.504088879E0
1.563532937E0,-7.836494446E-1,1.072104168E1,2.528017044E0
1.565886166E0,-7.938188910E-1,1.072104168E1,2.556730986E0
1.568239396E0,-7.986045480E-1,1.074556828E1,2.570489645E0
1.570592677E0,-7.944171429E-1,1.075513935E1,2.580659151E0
1.572945906E0,-7.854440212E-1,1.074078274E1,2.609373093E0
1.575299135E0,-7.944171429E-1,1.070728302E1,2.614757061E0
1.577652364E0,-7.896314859E-1,1.065045357E1,2.658426046E0
1.580005594E0,-7.848458290E-1,1.062652493E1,2.668595552E0
1.582358823E0,-7.698906660E-1,1.054098225E1,2.683550596E0
1.584712052E0,-7.513462901E-1,1.048833942E1,2.712862730E0
1.587065281E0,-7.166503668E-1,1.043150997E1,2.690130949E0
1.589418562E0,-7.154539824E-1,1.036451149E1,2.651845694E0
1.591771791E0,-7.292127013E-1,1.031127071E1,2.633301258E0
1.594125021E0,-6.993024349E-1,1.025862885E1,2.580659151E0
1.596478250E0,-7.070791125E-1,1.022512913E1,2.513660192E0
1.598831479E0,-7.250252366E-1,1.020060253E1,2.461018085E0
1.601184708E0,-7.483552694E-1,1.017607689E1,2.431705952E0
1.603537937E0,-7.573283911E-1,1.018086243E1,2.402992249E0
1.605891166E0,-7.764709592E-1,1.020419216E1,2.397608280E0
1.608244396E0,-7.950153351E-1,1.021376324E1,2.358724833E0
1.610597677E0,-8.183453679E-1,1.023709393E1,2.329412937E0
1.612950906E0,-8.560323119E-1,1.026999474E1,2.319243431E0
1.615304135E0,-9.032905698E-1,1.030768204E1,2.284547329E0
1.617657364E0,-8.979067206E-1,1.031665516E1,2.236690998E0
1.620010594E0,-9.361918569E-1,1.037348461E1,2.206780672E0
1.622363823E0,-9.834501147E-1,1.037767220E1,2.191825628E0
1.624717052E0,-1.007378340E0,1.043509960E1,2.167299032E0
1.627070281E0,-1.040877819E0,1.046321487E1,2.166700840E0
1.629423562E0,-1.026520967E0,1.048235798E1,2.152343988E0
1.631776791E0,-1.016949654E0,1.046859932E1,2.176272154E0
1.634130021E0,-1.045663476E0,1.049671459E1,2.151745796E0
1.636483250E0,-1.012163997E0,1.048235798E1,2.142772675E0
1.638836479E0,-9.780662656E-1,1.044467068E1,2.105085611E0
1.641189708E0,-9.439685345E-1,1.041595650E1,2.072184324E0
1.643542937E0,-9.086744189E-1,1.032024384E1,2.020738840E0
1.645896219E0,-8.500502706E-1,1.026760197E1,1.935793519E0
1.648249448E0,-8.093722463E-1,1.017667484E1,1.826920033E0
1.650602677E0,-7.591229677E-1,1.004746246E1,1.722832322E0
1.652955906E0,-6.993024349E-1,9.927821159E0,1.604985833E0
1.655309135E0,-6.628118753E-1,9.779465675E0,1.510469317E0
1.657662364E0,-6.460621357E-1,9.654440880E0,1.429711580E0
1.660015594E0,-6.053841114E-1,9.510871887E0,1.349551916E0
1.662368823E0,-6.179464459E-1,9.395418167E0,1.287936807E0
1.664722104E0,-6.107679605E-1,9.285347939E0,1.240678549E0
1.667075333E0,-6.185446382E-1,9.151350021E0,1.217946768E0
1.669428562E0,-6.269195080E-1,9.055637360E0,1.194616675E0
1.671781791E0,-6.017948985E-1,8.945567131E0,1.181456208E0
1.674135021E0,-6.293123364E-1,8.830712318E0,1.176670551E0
1.676488250E0,-6.179464459E-1,8.730213165E0,1.149153113E0
1.678841479E0,-6.173482537E-1,8.653642654E0,1.149751306E0
1.681194760E0,-6.023930907E-1,8.596215248E0,1.145563841E0
1.683547989E0,-5.832505226E-1,8.553144455E0,1.141376376E0
1.685901219E0,-5.539384484E-1,8.515457153E0,1.132403374E0
1.688254448E0,-5.497509837E-1,8.534600258E0,1.132403374E0
1.690607677E0,-5.126622319E-1,8.572885513E0,1.165902853E0
1.692960906E0,-4.893322289E-1,8.635697365E0,1.161117196E0
1.695314135E0,-4.857429862E-1,8.698508263E0,1.194018483E0
1.697667364E0,-4.390829504E-1,8.794221878E0,1.184447169E0
1.700020646E0,-4.444667995E-1,8.866005898E0,1.183848977E0
1.702373875E0,-4.402793646E-1,8.918647766E0,1.174277663E0
1.704727104E0,-4.504488707E-1,9.023334503E0,1.158724308E0
1.707080333E0,-4.462614357E-1,9.123832703E0,1.129412293E0
1.709433562E0,-4.707878530E-1,9.195018768E0,1.133599758E0
1.711786791E0,-4.905286431E-1,9.309276581E0,1.094118118E0
1.714140021E0,-5.246263742E-1,9.418747902E0,1.073180914E0
1.716493250E0,-5.868397355E-1,9.518648148E0,1.052842021E0
1.718846531E0,-6.311069727E-1,9.647262573E0,1.070189953E0
1.721199760E0,-6.795616150E-1,9.756733894E0,1.082752228E0
1.723552989E0,-7.381857634E-1,9.857233047E0,1.115055323E0
1.725906219E0,-7.734799385E-1,9.972088814E0,1.156929731E0
1.728259448E0,-8.075776696E-1,1.008156013E1,1.160519004E0
1.730612677E0,-8.327022791E-1,1.013898754E1,1.207777262E0
1.732965906E0,-8.668000102E-1,1.020598698E1,1.220937729E0
1.735319135E0,-8.913264275E-1,1.026760197E1,1.239482164E0
1.737672416E0,-8.919246197E-1,1.032024384E1,1.258026481E0
1.740025646E0,-8.937192559E-1,1.040219784E1,1.295713425E0
1.742378875E0,-9.134600163E-1,1.044945621E1,1.319043517E0
1.744732104E0,-9.134600163E-1,1.048774147E1,1.309472203E0
1.747085333E0,-9.092726111E-1,1.054038334E1,1.318445325E0
1.749438562E0,-9.242277741E-1,1.062173939E1,1.303490162E0
1.751791791E0,-9.349954724E-1,1.068395329E1,1.331605792E0
1.754145021E0,-9.451649189E-1,1.072223854E1,1.335793257E0
1.756498302E0,-9.726824164E-1,1.075513935E1,1.287338614E0
1.758851531E0,-1.001396298E0,1.079761219E1,1.253240824E0
1.761204760E0,-1.000798106E0,1.085444164E1,1.209571838E0
1.763557989E0,-1.028315544E0,1.085384369E1,1.127617717E0
1.765911219E0,-1.042074203E0,1.090648556E1,1.060020447E0
1.768264448E0,-1.045663476E0,1.096810055E1,9.780662656E-1
1.770617677E0,-1.073180914E0,1.098185921E1,9.104689956E-1
1.772970958E0,-1.067797065E0,1.100040436E1,8.572286963E-1
1.775324187E0,-1.086939692E0,1.101894855E1,8.285148144E-1
1.777677416E0,-1.129412293E0,1.103809071E1,8.177471161E-1
1.780030646E0,-1.162911773E0,1.107099247E1,7.884350419E-1
1.782383875E0,-1.197009563E0,1.108475113E1,8.165507317E-1
1.784737104E0,-1.216750264E0,1.111346436E1,8.542376757E-1
1.787090333E0,-1.255035520E0,1.111346436E1,8.973084688E-1
1.789443562E0,-1.260419369E0,1.111346436E1,9.158528447E-1
1.791796791E0,-1.288534999E0,1.109910774E1,9.062815905E-1
1.794150073E0,-1.288534999E0,1.110389328E1,9.158528447E-1
1.796503302E0,-1.307677627E0,1.110329533E1,9.104689956E-1
1.798856531E0,-1.302891970E0,1.110389328E1,9.206385016E-1
1.801209760E0,-1.288534999E0,1.108953667E1,9.254241586E-1
1.803562989E0,-1.283749342E0,1.108953667E1,9.206385016E-1
1.805916219E0,-1.226321578E0,1.104706383E1,9.122636318E-1
1.808269448E0,-1.197607756E0,1.099023438E1,9.128618240E-1
1.810622677E0,-1.139581800E0,1.094776154E1,9.332008362E-1
1.812975958E0,-1.120439172E0,1.086580753E1,9.535398483E-1
1.815329187E0,-1.091725349E0,1.078983593E1,9.834501147E-1
1.817682416E0,-1.054038405E0,1.074317551E1,1.041476011E0
1.820035646E0,-1.045065284E0,1.068634605E1,1.118644595E0
1.822388875E0,-1.016949654E0,1.063908768E1,1.167697430E0
1.824742104E0,-1.012762189E0,1.061037350E1,1.205982566E0
1.827095333E0,-1.046261668E0,1.059601688E1,1.239482164E0
1.829448614E0,-1.041476011E0,1.052961636E1,1.278365493E0
1.831801844E0,-1.079162955E0,1.050508976E1,1.287338614E0
1.834155073E0,-1.084546804E0,1.043868923E1,1.345364571E0
1.836508302E0,-1.107278705E0,1.035733318E1,1.355534077E0
1.838861531E0,-1.106680512E0,1.032383347E1,1.355534077E0
1.841214760E0,-1.124626637E0,1.024247742E1,1.341775298E0
1.843567989E0,-1.137787223E0,1.017009449E1,1.293918848E0
1.845921219E0,-1.088136077E0,1.007019424E1,1.242473125E0
1.848274500E0,-1.096511006E0,1.003131104E1,1.185045362E0
1.850627729E0,-1.070788145E0,9.935597420E0,1.128814101E0
1.852980958E0,-1.022333503E0,9.893125534E0,1.086939692E0
1.855334187E0,-9.840483069E-1,9.873982430E0,1.073180914E0
1.857687416E0,-9.595218897E-1,9.850054741E0,1.044467092E0
1.860040646E0,-9.643075466E-1,9.869196892E0,1.030110121E0
1.862393875E0,-9.643075466E-1,9.878767967E0,1.015753269E0
1.864747104E0,-9.361918569E-1,9.907482147E0,1.020538807E0
1.867100385E0,-9.457631707E-1,9.912267685E0,1.006181955E0
1.869453614E0,-9.314061999E-1,9.912267685E0,1.001396298E0
1.871806844E0,-9.409775138E-1,9.950552940E0,1.006181955E0
1.874160073E0,-9.080761671E-1,9.960124016E0,1.001396298E0
1.876513302E0,-9.170492887E-1,9.950552940E0,9.870393276E-1
1.878866531E0,-8.787640929E-1,9.955338478E0,9.397810698E-1
1.881219760E0,-8.309076428E-1,9.941579819E0,9.212366939E-1
1.883572989E0,-7.974081635E-1,9.936794281E0,9.122636318E-1
1.885926271E0,-7.483552694E-1,9.865608215E0,8.703892231E-1
1.888279500E0,-7.004988194E-1,9.827322960E0,8.518448472E-1
1.890632729E0,-6.759724021E-1,9.789037704E0,8.045865893E-1
1.892985958E0,-6.083751321E-1,9.722038269E0,7.728816867E-1
1.895339187E0,-5.700899959E-1,9.703494072E0,7.591229677E-1
1.897692416E0,-5.599204898E-1,9.722636223E0,7.351947427E-1
1.900045646E0,-5.318048596E-1,9.746564865E0,7.304090858E-1
1.902398875E0,-5.270192027E-1,9.760921478E0,7.064808607E-1
1.904752156E0,-5.048855543E-1,9.800403595E0,7.830511928E-1
1.907105385E0,-4.821537733E-1,9.834501266E0,8.117650747E-1
1.909458614E0,-4.540380836E-1,9.891928673E0,8.219345808E-1
1.911811844E0,-4.546363056E-1,9.939785004E0,8.213363886E-1
1.914165073E0,-4.265206456E-1,9.949356079E0,8.261220455E-1
1.916518302E0,-3.798605800E-1,9.949954987E0,8.608179688E-1
1.918871531E0,-3.846462369E-1,9.964311600E0,8.554341197E-1
1.921224760E0,-3.607180119E-1,9.950552940E0,8.512466550E-1
1.923578041E0,-3.224328458E-1,9.926624298E0,8.422735929E-1
1.925931271E0,-2.883351147E-1,9.850652695E0,8.243274093E-1
1.928284500E0,-2.967100143E-1,9.826126099E0,7.716853023E-1
1.930637729E0,-2.907279432E-1,9.802198410E0,7.429714203E-1
1.932990958E0,-2.907279432E-1,9.773484230E0,7.292127013E-1
1.935344187E0,-2.949153781E-1,9.739386559E0,7.148557901E-1
1.937697416E0,-3.128615618E-1,9.700503349E0,6.957131624E-1
1.940050698E0,-2.931207716E-1,9.576674461E0,7.160521746E-1
1.942403927E0,-2.452643216E-1,9.510273933E0,7.459624410E-1
1.944757156E0,-3.397808075E-1,9.580862045E0,6.867401004E-1
1.947110385E0,-3.296113312E-1,9.571290970E0,6.245267391E-1
1.949463614E0,-3.912265003E-1,9.651450157E0,5.748756528E-1
1.951816844E0,-4.007977843E-1,9.675378799E0,5.605186820E-1
1.954170073E0,-4.522434771E-1,9.660423279E0,5.593222976E-1
1.956523302E0,-4.564309120E-1,9.607781410E0,5.551348329E-1
1.958876583E0,-4.606183469E-1,9.550353050E0,5.509474277E-1
1.961229812E0,-4.743770957E-1,9.488140106E0,5.748756528E-1
1.963583041E0,-4.935196638E-1,9.454640388E0,5.748756528E-1
1.965936271E0,-5.216353536E-1,9.425328255E0,5.796613097E-1
1.968289500E0,-5.072783828E-1,9.392427444E0,5.898307562E-1
1.970642729E0,-5.114658475E-1,9.330213547E0,5.946164131E-1
1.972995958E0,-4.683950245E-1,9.263813019E0,6.245267391E-1
1.975349187E0,-4.115654826E-1,9.250054359E0,6.352944374E-1
1.977702469E0,-4.642075896E-1,9.364311218E0,6.000002623E-1
1.980055698E0,-4.630111754E-1,9.358927727E0,5.377869010E-1
1.982408927E0,-4.438686073E-1,9.368498802E0,4.947160780E-1
1.984762156E0,-4.528416991E-1,9.382257462E0,4.564309120E-1
1.987115385E0,-4.426721931E-1,9.377471924E0,4.372883439E-1
1.989468614E0,-4.139583111E-1,9.363713264E0,4.235295951E-1
1.991821844E0,-4.133601189E-1,9.363115311E0,3.942175210E-1
1.994175125E0,-4.325026870E-1,9.382257462E0,3.750749528E-1
1.996528354E0,-4.313062727E-1,9.367302895E0,3.266202807E-1
1.998881583E0,-4.408775866E-1,9.376873970E0,3.020938635E-1
2.001234812E0,-4.402793646E-1,9.372088432E0,2.829512656E-1
2.003588041E0,-4.642075896E-1,9.343374252E0,3.164508045E-1
2.005941271E0,-5.030909777E-1,9.395418167E0,3.302095234E-1
2.008294500E0,-5.174478889E-1,9.404989243E0,3.439682424E-1
2.010647781E0,-5.413761139E-1,9.404989243E0,3.391826153E-1
2.013001010E0,-5.371887088E-1,9.395418167E0,3.924229145E-1
2.015354239E0,-5.850451589E-1,9.419346809E0,4.205385745E-1
2.017707469E0,-6.041877270E-1,9.433105469E0,4.199403822E-1
2.020060698E0,-6.520441771E-1,9.447462082E0,4.336991012E-1
2.022413927E0,-6.580262184E-1,9.471389771E0,4.911268353E-1
2.024767156E0,-6.729813814E-1,9.481559753E0,5.479564071E-1
2.027120385E0,-7.226324677E-1,9.567103386E0,6.089733839E-1
2.029473666E0,-7.477570772E-1,9.638887405E0,6.610172391E-1
2.031826896E0,-7.531409264E-1,9.662816048E0,6.993024349E-1
2.034180125E0,-7.453642488E-1,9.716055870E0,7.465606928E-1
2.036533354E0,-8.081758618E-1,9.797411919E0,8.027920127E-1
2.038886583E0,-8.087740541E-1,9.826126099E0,7.980063558E-1
2.041239812E0,-7.908278704E-1,9.855438232E0,8.410771489E-1
2.043593041E0,-8.147560954E-1,9.907482147E0,8.213363886E-1
2.045946323E0,-8.147560954E-1,9.940981865E0,7.968099117E-1
2.048299552E0,-8.237292171E-1,9.959526062E0,7.728816867E-1
2.050652781E0,-8.285148144E-1,9.969097137E0,7.722834945E-1
2.053006010E0,-8.614161611E-1,9.997213364E0,7.142575383E-1
2.055359239E0,-8.853443861E-1,1.001635551E1,7.136593461E-1
2.057712469E0,-9.086744189E-1,1.004925728E1,6.987041831E-1
2.060065698E0,-9.607182741E-1,1.006301594E1,6.885347366E-1
2.062418927E0,-1.007976532E0,1.007198906E1,6.634100676E-1
2.064772208E0,-1.051645517E0,1.007677460E1,7.010970116E-1
2.067125437E0,-1.094118118E0,1.007139015E1,7.148557901E-1
2.069478666E0,-1.161117196E0,1.006122112E1,7.334001660E-1
2.071831896E0,-1.185045362E0,1.003729248E1,7.668996453E-1
2.074185125E0,-1.223928809E0,1.008514881E1,7.752745152E-1
2.076538354E0,-1.276570916E0,1.009890842E1,7.986045480E-1
2.078891583E0,-1.319641709E0,1.009412193E1,8.219345808E-1
2.081244812E0,-1.376471281E0,1.010309505E1,8.117650747E-1
2.083598094E0,-1.386640668E0,1.011266708E1,8.542376757E-1
2.085951323E0,-1.401595831E0,1.009352398E1,9.212366939E-1
2.088304552E0,-1.411765337E0,1.009830952E1,9.547362328E-1
2.090657781E0,-1.421934843E0,1.009412193E1,1.007378340E0
2.093011010E0,-1.441675663E0,1.009412193E1,1.055234790E0
2.095364239E0,-1.427318692E0,1.007976532E1,1.064806104E0
2.097717469E0,-1.399801254E0,1.008993530E1,1.098903775E0
2.100070698E0,-1.395015597E0,1.006660461E1,1.118644595E0
2.102423979E0,-1.400399446E0,1.005703354E1,1.171286702E0
2.104777208E0,-1.400399446E0,1.000977516E1,1.209571838E0
2.107130437E0,-1.395613790E0,9.961918831E0,1.214955688E0
2.109483666E0,-1.414158225E0,9.933204651E0,1.219741344E0
2.111836896E0,-1.447059512E0,9.908679008E0,1.224527001E0
2.114190125E0,-1.456630826E0,9.913464546E0,1.223928809E0
2.116543354E0,-1.475175142E0,9.865608215E0,1.243071318E0
2.118896635E0,-1.508674622E0,9.846465111E0,1.252642632E0
2.121249864E0,-1.508674622E0,9.803394318E0,1.276570916E0
2.123603094E0,-1.536192179E0,9.759725571E0,1.281356573E0
2.125956323E0,-1.536192179E0,9.726225853E0,1.296311617E0
2.128309552E0,-1.550549030E0,9.673583984E0,1.334596872E0
2.130662781E0,-1.564307809E0,9.630513191E0,1.344168067E0
2.133016010E0,-1.588235974E0,9.563513756E0,1.373480201E0
2.135369291E0,-1.583450437E0,9.506684303E0,1.421934843E0
2.137722521E0,-1.597807288E0,9.468399048E0,1.465005636E0
2.140075750E0,-1.645663738E0,9.439684868E0,1.517647743E0
2.142428979E0,-1.642074585E0,9.449854851E0,1.575075507E0
2.144782208E0,-1.661815286E0,9.440283775E0,1.637288928E0
2.147135437E0,-1.682154298E0,9.454640388E0,1.709073544E0
2.149488666E0,-1.692921996E0,9.445667267E0,1.780858278E0
2.151841896E0,-1.688734531E0,9.446265221E0,1.833500385E0
2.154195177E0,-1.670190215E0,9.436694145E0,1.872383714E0
2.156548406E0,-1.695314884E0,9.422935486E0,1.939382792E0
2.158901635E0,-1.690529227E0,9.408578873E0,1.958525300E0
2.161254864E0,-1.695913076E0,9.389435768E0,2.011167526E0
2.163608094E0,-1.706082582E0,9.385248184E0,2.063809633E0
2.165961323E0,-1.715653777E0,9.366106033E0,2.078166485E0
2.168314552E0,-1.743769526E0,9.360722542E0,2.078166485E0
2.170667781E0,-1.777269006E0,9.355937004E0,2.082353830E0
2.173021062E0,-1.814955950E0,9.374481201E0,2.072184324E0
2.175374291E0,-1.857428551E0,9.340981483E0,2.081157446E0
2.177727521E0,-1.905285001E0,9.345169067E0,2.090130568E0
2.180080750E0,-1.952543259E0,9.330213547E0,2.113460541E0
2.182433979E0,-2.000399828E0,9.330213547E0,2.122433662E0
2.184787208E0,-2.052443504E0,9.291330338E0,2.140978098E0
2.187140489E0,-2.090130568E0,9.253045082E0,2.150549412E0
2.189493719E0,-2.123031855E0,9.252447128E0,2.135594130E0
2.191846948E0,-2.164906263E0,9.185447693E0,2.149951220E0
2.194200177E0,-2.178664923E0,9.132207870E0,2.140379906E0
2.196553406E0,-2.202593327E0,9.103493690E0,2.164308071E0
2.198906635E0,-2.234896421E0,9.022137642E0,2.178664923E0
2.201259864E0,-2.239083767E0,8.998209953E0,2.173879385E0
2.203613094E0,-2.258226395E0,8.955139160E0,2.188834429E0
2.205966323E0,-2.301297188E0,8.921639442E0,2.207378864E0
2.208319604E0,-2.301297188E0,8.873783112E0,2.241476536E0
2.210672833E0,-2.310868502E0,8.830712318E0,2.279761791E0
2.213026062E0,-2.330011129E0,8.773882866E0,2.327618122E0
2.215379291E0,-2.334796667E0,8.669196129E0,2.410170555E0
2.217732521E0,-2.354537487E0,8.606385231E0,2.472383976E0
2.220085750E0,-2.355135679E0,8.568697929E0,2.549552441E0
2.222438979E0,-2.407777786E0,8.511270523E0,2.606980324E0
2.224792260E0,-2.431705952E0,8.453842163E0,2.674577475E0
2.227145489E0,-2.437089920E0,8.392227173E0,2.761317253E0
2.229498719E0,-2.451446772E0,8.321041107E0,2.804986238E0
2.231851948E0,-2.465803623E0,8.263612747E0,2.852842808E0
2.234205177E0,-2.461018085E0,8.187641144E0,2.896511793E0
2.236558406E0,-2.446063042E0,8.068597794E0,2.916850805E0
2.238911635E0,-2.407777786E0,7.987840176E0,2.951546669E0
2.241264864E0,-2.392822742E0,7.872984886E0,2.976671457E0
2.243618146E0,-2.364108801E0,7.792226791E0,3.020938635E0
2.245971375E0,-2.393420935E0,7.864011765E0,3.038884640E0
2.248324604E0,-2.513062000E0,7.982456207E0,3.031706333E0
2.250677833E0,-2.552543640E0,8.072785378E0,3.068794966E0
2.253031062E0,-2.548954248E0,8.106883049E0,3.107080221E0
2.255384291E0,-2.593221426E0,8.183453560E0,3.182454109E0
2.257737521E0,-2.613560438E0,8.264211655E0,3.220141172E0
2.260090802E0,-2.639283419E0,8.345566750E0,3.271586657E0
2.262444031E0,-2.669193745E0,8.412566185E0,3.323630571E0
2.264797260E0,-2.679961443E0,8.508278847E0,3.361317635E0
2.267150489E0,-2.710469961E0,8.594420433E0,3.417548895E0
2.269503719E0,-2.722434044E0,8.705686569E0,3.488735437E0
2.271856948E0,-2.733201742E0,8.787042618E0,3.544966698E0
2.274210177E0,-2.759522676E0,8.901898384E0,3.611367464E0
2.276563458E0,-2.756531715E0,9.007183075E0,3.658625841E0
2.278916687E0,-2.762513638E0,9.117252350E0,3.676572084E0
2.281269916E0,-2.759522676E0,9.222537041E0,3.728615999E0
2.283623146E0,-2.770290375E0,9.289535522E0,3.752544165E0
2.285976375E0,-2.795415163E0,9.409176826E0,3.775275946E0
2.288329604E0,-2.801995277E0,9.509675026E0,3.808177233E0
2.290682833E0,-2.831905603E0,9.576674461E0,3.850649834E0
2.293036062E0,-2.842673302E0,9.658030510E0,3.897309780E0
2.295389344E0,-2.853441000E0,9.725028992E0,3.920639992E0
2.297742573E0,-2.868994236E0,9.825528145E0,3.948755503E0
2.300095802E0,-2.892922640E0,9.854242325E0,3.962514400E0
2.302449031E0,-2.917448997E0,9.930213928E0,3.961916208E0
2.304802260E0,-2.922832966E0,9.987641335E0,3.966103554E0
2.307155489E0,-2.937788010E0,1.001635551E1,3.975076675E0
2.309508719E0,-2.976073265E0,1.003011417E1,3.979264021E0
2.311862000E0,-2.975475073E0,1.003489971E1,3.960121393E0
2.314215229E0,-2.994617462E0,9.982257843E0,3.988835335E0
2.316568458E0,-3.017947674E0,9.948758125E0,3.988835335E0
2.318921687E0,-3.031706333E0,9.915258408E0,3.998406649E0
2.321274916E0,-3.040679455E0,9.824331284E0,4.013361931E0
2.323628146E0,-3.031108141E0,9.772287369E0,4.047459602E0
2.325981375E0,-3.058625460E0,9.684949875E0,4.033102512E0
2.328334656E0,-3.048455954E0,9.628120422E0,4.043272018E0
2.330687885E0,-3.028715372E0,9.522835732E0,4.044468403E0
2.333041114E0,-3.032304525E0,9.394221306E0,4.060021877E0
2.335394344E0,-3.017349243E0,9.298508644E0,4.074976921E0
2.337747573E0,-2.997010469E0,9.155537605E0,4.076173306E0
2.340100802E0,-2.967100143E0,9.046066284E0,4.086941242E0
2.342454031E0,-2.928216696E0,8.898308754E0,4.093521118E0
2.344807260E0,-2.912065268E0,8.740981102E0,4.095315933E0
2.347160541E0,-2.854637384E0,8.597412109E0,4.125824451E0
2.349513771E0,-2.814557552E0,8.454441071E0,4.112663746E0
2.351867000E0,-2.766103029E0,8.306683540E0,4.124029636E0
2.354220229E0,-2.712264538E0,8.154141426E0,4.121636868E0
2.356573458E0,-2.667997360E0,8.006384850E0,4.127619267E0
2.358926687E0,-2.624926329E0,7.883154392E0,4.182055950E0
2.361279916E0,-2.609971285E0,7.773682594E0,4.207180500E0
2.363633146E0,-2.548356056E0,7.678567886E0,4.232903481E0
2.365986427E0,-2.499303341E0,7.569096088E0,4.224528313E0
2.368339656E0,-2.446661234E0,7.487740040E0,4.235296249E0
2.370692885E0,-2.398804665E0,7.445267677E0,4.241278172E0
2.373046114E0,-2.374876499E0,7.383652687E0,4.271188259E0
2.375399344E0,-2.360519648E0,7.350152969E0,4.275974274E0
2.377752573E0,-2.337189436E0,7.298109055E0,4.325026989E0
2.380105802E0,-2.280359983E0,7.270591736E0,4.359723091E0
2.382459083E0,-2.242074728E0,7.251449108E0,4.355535507E0
2.384812312E0,-2.242074728E0,7.256234646E0,4.360321045E0
2.387165541E0,-2.185843468E0,7.295117855E0,4.370490551E0
2.389518771E0,-2.180459738E0,7.290332317E0,4.336990833E0
2.391872000E0,-2.142772675E0,7.314260483E0,4.327419758E0
2.394225229E0,-2.114058733E0,7.362117290E0,4.293920040E0
2.396578458E0,-2.090130568E0,7.390830994E0,4.246063709E0
2.398931739E0,-2.070389748E0,7.443472862E0,4.179064751E0
2.401284969E0,-2.060220242E0,7.495516777E0,4.111467361E0
2.403638198E0,-2.026720762E0,7.567899704E0,4.025325775E0
2.405991427E0,-2.045265198E0,7.634300709E0,3.972085476E0
2.408344656E0,-2.030908108E0,7.719843864E0,3.894917011E0
2.410697885E0,-2.044667006E0,7.786244869E0,3.841078520E0
2.413051114E0,-2.021337032E0,7.848458290E0,3.802793503E0
2.415404396E0,-2.030908108E0,7.948358536E0,3.758526087E0
2.417757625E0,-2.030908108E0,8.005187988E0,3.710071564E0
2.420110854E0,-2.030908108E0,8.076972961E0,3.675973892E0
2.422464083E0,-2.040479422E0,8.172087669E0,3.622135162E0
2.424817312E0,-2.021935225E0,8.234300613E0,3.593421459E0
2.427170541E0,-2.036890268E0,8.362915039E0,3.573082447E0
2.429523771E0,-2.056631088E0,8.448458672E0,3.543172121E0
2.431877000E0,-2.071586132E0,8.572885513E0,3.518047571E0
2.434230281E0,-2.077568293E0,8.706883430E0,3.507279873E0
2.436583510E0,-2.083550215E0,8.864211082E0,3.472583771E0
2.438936739E0,-2.112862349E0,9.050253868E0,3.427718401E0
2.441289969E0,-2.118844509E0,9.217152596E0,3.397808075E0
2.443643198E0,-2.143969059E0,9.388837814E0,3.372085333E0
2.445996427E0,-2.154736757E0,9.550951958E0,3.337389469E0
2.448349708E0,-2.175075769E0,9.703494072E0,3.330809116E0
2.450702937E0,-2.200200319E0,9.904491425E0,3.295515060E0
2.453056166E0,-2.220539331E0,1.005224800E1,3.284747362E0
2.455409396E0,-2.245664120E0,1.020060253E1,3.282952785E0
2.457762625E0,-2.285743713E0,1.034836006E1,3.272184849E0
2.460115854E0,-2.301297188E0,1.049611664E1,3.260818958E0
2.462469083E0,-2.330609322E0,1.062473106E1,3.250051260E0
2.464822312E0,-2.360519648E0,1.075334454E1,3.239283562E0
2.467175594E0,-2.385046005E0,1.089691448E1,3.203989506E0
2.469528823E0,-2.404188633E0,1.102552891E1,3.145365477E0
2.471882052E0,-2.418545485E0,1.111585712E1,3.077169895E0
2.474235281E0,-2.446661234E0,1.122473145E1,2.994617462E0
2.476588510E0,-2.461018085E0,1.127737331E1,2.960519791E0
2.478941739E0,-2.474776745E0,1.132463169E1,2.902493954E0
2.481294969E0,-2.464607239E0,1.134796143E1,2.873780012E0
2.483648250E0,-2.474178553E0,1.139103222E1,2.854039192E0
2.486001479E0,-2.474178553E0,1.143829060E1,2.791227579E0
2.488354708E0,-2.464607239E0,1.143829060E1,2.786442041E0
2.490707937E0,-2.453839540E0,1.145264721E1,2.729014158E0
2.493061166E0,-2.443670034E0,1.141914749E1,2.686541557E0
2.495414396E0,-2.428714991E0,1.138086224E1,2.672782898E0
2.497767625E0,-2.375474691E0,1.131446171E1,2.635694027E0
2.500120906E0,-2.322234392E0,1.120499039E1,2.627319336E0
2.502474135E0,-2.282752752E0,1.108056355E1,2.614757061E0
2.504827364E0,-2.218744755E0,1.096630573E1,2.581855536E0
2.507180594E0,-2.150549412E0,1.080897808E1,2.584248543E0
2.509533823E0,-2.087139606E0,1.065643597E1,2.571686029E0
2.511887052E0,-1.995614052E0,1.050927734E1,2.569293261E0
2.514240281E0,-1.913659930E0,1.032383347E1,2.591426849E0
2.516593562E0,-1.826920033E0,1.014796066E1,2.593819857E0
2.518946791E0,-1.716252089E0,9.981659889E0,2.611167669E0
2.521300021E0,-1.615155339E0,9.786644936E0,2.633899450E0
2.523653250E0,-1.505085468E0,9.625128746E0,2.660220623E0
2.526006479E0,-1.423131227E0,9.458230019E0,2.686541557E0
2.528359708E0,-1.308874011E0,9.306883812E0,2.742174864E0
2.530712937E0,-1.207179070E0,9.135796547E0,2.730808735E0
2.533066219E0,-1.095314622E0,8.979066849E0,2.709273338E0
2.535419448E0,-9.750752449E-1,8.812766075E0,2.683550596E0
2.537772677E0,-8.644071817E-1,8.684749603E0,2.657229662E0
2.540125906E0,-7.627122402E-1,8.555537224E0,2.601596355E0
2.542479135E0,-6.574280262E-1,8.480163574E0,2.579462767E0
2.544832364E0,-5.461617708E-1,8.394619942E0,2.519642353E0
2.547185594E0,-4.552344978E-1,8.366504669E0,2.477767944E0
2.549538875E0,-3.696911037E-1,8.371888161E0,2.435893536E0
2.551892104E0,-2.883351147E-1,8.372486115E0,2.398804665E0
2.554245333E0,-2.015953064E-1,8.373085022E0,2.318645239E0
2.556598562E0,-1.256231815E-1,8.397610664E0,2.290529490E0
2.558951791E0,-5.024927482E-2,8.450851440E0,2.282154560E0
2.561305021E0,3.469592705E-2,8.499305725E0,2.297109842E0
2.563658250E0,1.106680483E-1,8.542975426E0,2.273779631E0
2.566011531E0,1.908276081E-1,8.615358353E0,2.255235434E0
2.568364760E0,2.745763958E-1,8.712266922E0,2.260619164E0
2.570717989E0,3.690928817E-1,8.766105652E0,2.271386862E0
2.573071219E0,4.677968323E-1,8.857631683E0,2.262413740E0
2.575424448E0,5.479564071E-1,8.920442581E0,2.239083767E0
2.577777677E0,6.466603279E-1,8.978468895E0,2.230708838E0
2.580130906E0,7.555337548E-1,9.055637360E0,2.207378864E0
2.582484187E0,8.309076428E-1,9.132805824E0,2.193620205E0
2.584837416E0,9.248259664E-1,9.210572243E0,2.180459738E0
2.587190646E0,1.033101201E0,9.297312737E0,2.161915302E0
2.589543875E0,1.089332461E0,9.373882294E0,2.143370867E0
2.591897104E0,1.145563841E0,9.461220741E0,2.181656122E0
2.594250333E0,1.216152072E0,9.542576790E0,2.163111687E0
2.596603562E0,1.262812138E0,9.619745255E0,2.153540373E0
2.598956791E0,1.295115232E0,9.686744690E0,2.167897224E0
2.601310073E0,1.309472203E0,9.758528709E0,2.119442701E0
2.603663302E0,1.323230863E0,9.821340561E0,2.100300074E0
2.606016531E0,1.338186026E0,9.873384476E0,2.037488461E0
2.608369760E0,1.314257860E0,9.915857315E0,2.003390789E0
2.610722989E0,1.310070395E0,9.958928108E0,1.945364833E0
2.613076219E0,1.295713425E0,1.001575756E1,1.901695848E0
2.615429500E0,1.258026481E0,1.004865837E1,1.862812400E0
2.617782729E0,1.211366415E0,1.006241703E1,1.818545222E0
2.620135958E0,1.164108157E0,1.009950638E1,1.793420553E0
2.622489187E0,1.112064362E0,1.013240719E1,1.754537225E0
2.624842416E0,1.068993568E0,1.014616585E1,1.743769526E0
2.627195646E0,9.990034699E-1,1.015513897E1,1.685145378E0
2.629548875E0,9.290133715E-1,1.011565781E1,1.627119422E0
2.631902104E0,8.632107973E-1,1.009591675E1,1.592423439E0
2.634255385E0,8.027920127E-1,1.006600666E1,1.543968797E0
2.636608614E0,7.519445419E-1,1.001755238E1,1.500299811E0
2.638961844E0,6.873382926E-1,9.949954987E0,1.447059512E0
2.641315073E0,6.317051649E-1,9.863214493E0,1.417747378E0
2.643668302E0,5.952146053E-1,9.766903877E0,1.393819213E0
2.646021531E0,5.629115105E-1,9.680164337E0,1.389631748E0
2.648374812E0,5.216353536E-1,9.593423843E0,1.360917926E0
2.650728041E0,4.701896608E-1,9.521040916E0,1.360319614E0
2.653081271E0,4.384847581E-1,9.420542717E0,1.356132269E0
2.655434500E0,4.157529473E-1,9.329615593E0,1.346560955E0
2.657787729E0,3.972085714E-1,9.224330902E0,1.366301775E0
2.660140958E0,3.750749528E-1,9.119047165E0,1.362114310E0
2.662494187E0,3.481557071E-1,8.998807907E0,1.352542996E0
2.664847469E0,3.391826153E-1,8.907880783E0,1.357926846E0
2.667200698E0,3.397808075E-1,8.831908226E0,1.368096352E0
2.669553927E0,3.122633696E-1,8.749954224E0,1.373480201E0
2.671907156E0,3.314059377E-1,8.702695847E0,1.402792215E0
2.674260385E0,3.361915946E-1,8.616554260E0,1.441675663E0
2.676613614E0,3.116651475E-1,8.606983185E0,1.494915962E0
2.678966844E0,3.020938635E-1,8.573483467E0,1.542772412E0
2.681320125E0,3.008974493E-1,8.559724808E0,1.604985833E0
2.683673354E0,3.290131092E-1,8.517251968E0,1.668395638E0
2.686026583E0,3.188436031E-1,8.508278847E0,1.721037745E0
2.688379812E0,3.044866920E-1,8.484351158E0,1.730608940E0
2.690733041E0,3.326023519E-1,8.456234932E0,1.788634896E0
2.693086271E0,3.272185028E-1,8.432307243E0,1.817348838E0
2.695439500E0,3.032902777E-1,8.417949677E0,1.836491346E0
2.697792729E0,2.799602449E-1,8.408378601E0,1.846062660E0
2.700146010E0,2.416750938E-1,8.417351723E0,1.864607096E0
2.702499239E0,2.219343036E-1,8.436494827E0,1.887937069E0
2.704852469E0,1.884347796E-1,8.460422516E0,1.906481385E0
2.707205698E0,1.399801224E-1,8.522037506E0,1.910070658E0
2.709558927E0,9.212367237E-2,8.559724808E0,1.938186288E0
2.711912156E0,2.991028316E-2,8.592626572E0,1.956132531E0
2.714265437E0,-2.273181453E-2,8.611768723E0,1.978864312E0
2.716618666E0,-8.554340899E-2,8.620741844E0,2.002194405E0
2.718971896E0,-1.429711580E-1,8.644669533E0,2.034497499E0
2.721325125E0,-1.956132501E-1,8.668000221E0,2.043470621E0
2.723678354E0,-2.620140910E-1,8.672187805E0,2.042274237E0
2.726031583E0,-3.242274821E-1,8.714659691E0,2.065006018E0
2.728384812E0,-3.954139352E-1,8.771489143E0,2.029711723E0
2.730738094E0,-4.863412082E-1,8.827720642E0,2.033301115E0
2.733091323E0,-5.581258535E-1,8.889336586E0,2.026720762E0
2.735444552E0,-6.388836503E-1,8.964710236E0,2.000998020E0
2.737797781E0,-7.345965505E-1,9.049654961E0,2.008774519E0
2.740151010E0,-7.866404653E-1,9.135198593E0,1.954337835E0
2.742504239E0,-8.967102766E-1,9.224929810E0,1.966900229E0
2.744857469E0,-1.006181955E0,9.290732384E0,1.964507341E0
2.747210750E0,-1.092323542E0,9.337990761E0,1.957927108E0
2.749563979E0,-1.221535921E0,9.422337532E0,1.965105653E0
2.751917208E0,-1.297508121E0,9.483952522E0,1.925624013E0
2.754270437E0,-1.411765337E0,9.563513756E0,1.904088616E0
2.756623666E0,-1.511665702E0,9.658030510E0,1.892124534E0
2.758976896E0,-1.635494232E0,9.742975235E0,1.856232166E0
2.761330021E0,-1.740180254E0,9.814162254E0,1.840080619E0
2.763730177E0,-1.831107497E0,9.889535904E0,1.832902193E0
2.766130333E0,-1.941177368E0,9.979267120E0,1.840678811E0
2.768530489E0,-2.027318954E0,1.005045319E1,1.862812400E0
2.770930854E0,-2.228316069E0,1.016351414E1,1.897508383E0
2.773331114E0,-2.314457655E0,1.022453117E1,1.905285001E0
2.775731375E0,-2.386242390E0,1.025743294E1,1.899302959E0
2.778131687E0,-2.462812662E0,1.031426239E1,1.921436548E0
2.780531948E0,-2.553141832E0,1.034237766E1,1.934597135E0
2.782932208E0,-2.624926329E0,1.036092186E1,1.957328916E0
2.785332469E0,-2.715853691E0,1.039322472E1,1.979462504E0
2.787732729E0,-2.791227579E0,1.038305569E1,1.969292998E0
2.790132989E0,-2.858226538E0,1.039202881E1,1.996810555E0
2.792533250E0,-2.919841766E0,1.037767220E1,2.020140409E0
2.794933510E0,-2.995813847E0,1.037168980E1,2.028515339E0
2.797333823E0,-3.071786165E0,1.032861900E1,2.061416626E0
2.799734083E0,-3.132204771E0,1.027537823E1,2.041675806E0
2.802134344E0,-3.184248686E0,1.021256733E1,2.060220242E0
2.804534604E0,-3.250051260E0,1.013061333E1,2.079362869E0
2.806934864E0,-3.339184046E0,1.007737255E1,2.078166485E0
2.809335125E0,-3.419941664E0,1.000977516E1,2.077568293E0
2.811735385E0,-3.471985579E0,9.933204651E0,2.111067772E0
2.814135698E0,-3.570689678E0,9.860223770E0,2.134397745E0
2.816535958E0,-3.637090445E0,9.763913155E0,2.172084808E0
2.818936219E0,-3.708276987E0,9.720842361E0,2.243271112E0
2.821336479E0,-3.765704632E0,9.662816048E0,2.295913219E0
2.823736739E0,-3.807579041E0,9.557532310E0,2.329412937E0
2.826137000E0,-3.845266104E0,9.480961800E0,2.348555326E0
2.828537260E0,-3.906881094E0,9.394820213E0,2.415554523E0
2.830937573E0,-3.930211306E0,9.303893089E0,2.454437733E0
2.833337833E0,-3.943969965E0,9.236893654E0,2.473580360E0
2.835738094E0,-3.967898130E0,9.165707588E0,2.531606436E0
2.838138354E0,-3.976871252E0,9.098708153E0,2.545963287E0
2.840538614E0,-4.000201225E0,9.017352104E0,2.570489645E0
2.842938875E0,-4.033102512E0,8.959924698E0,2.589632273E0
2.845339187E0,-4.024129391E0,8.902496338E0,2.638685226E0
2.847739448E0,-3.999603033E0,8.821739197E0,2.644068956E0
2.850139708E0,-4.003790379E0,8.773882866E0,2.659024239E0
2.852539969E0,-4.013361931E0,8.716454506E0,2.688336134E0
2.854940229E0,-4.028316975E0,8.659625053E0,2.769692183E0
2.857340489E0,-3.995415688E0,8.621339798E0,2.833101988E0
2.859740750E0,-3.986442566E0,8.574081421E0,2.871387243E0
2.862141062E0,-3.958925009E0,8.536993027E0,2.953939438E0
2.864541323E0,-3.949353695E0,8.465208054E0,3.016751051E0
2.866941583E0,-3.893122435E0,8.408976555E0,3.084946632E0
2.869341844E0,-3.860221148E0,8.337790489E0,3.143570662E0
2.871742104E0,-3.808177233E0,8.257631302E0,3.193221807E0
2.874142364E0,-3.746562004E0,8.139185905E0,3.262015581E0
2.876542625E0,-3.689134359E0,8.015955925E0,3.306880951E0
2.878942885E0,-3.636492252E0,7.916055679E0,3.351746321E0
2.881343198E0,-3.541377544E0,7.797610760E0,3.391826153E0
2.883698458E0,-3.460619688E0,7.712665558E0,3.432504177E0
2.886051687E0,-3.378665686E0,7.579864025E0,3.472583771E0
2.888404916E0,-3.311068296E0,7.489534855E0,3.483949661E0
2.890758146E0,-3.244667530E0,7.399205685E0,3.524029493E0
2.893111375E0,-3.159124136E0,7.309474945E0,3.568894863E0
2.895464656E0,-3.102892876E0,7.229315281E0,3.632902861E0
2.897817885E0,-3.035295486E0,7.153343201E0,3.634099483E0
2.900171114E0,-2.978466034E0,7.082755089E0,3.674179077E0
2.902524344E0,-2.927020311E0,7.040282249E0,3.728017569E0
2.904877573E0,-2.894119024E0,7.021738052E0,3.753142357E0
2.907230802E0,-2.828316450E0,7.003791809E0,3.806980848E0
2.909584031E0,-2.824128866E0,7.003791809E0,3.840480328E0
2.911937312E0,-2.791825771E0,7.023532867E0,3.884149313E0
2.914290541E0,-2.759522676E0,7.081558704E0,3.898506403E0
2.916643771E0,-2.745764017E0,7.124629498E0,3.917648792E0
2.918997000E0,-2.766701221E0,7.215556622E0,3.973880291E0
2.921350229E0,-2.787040234E0,7.330412388E0,3.996612072E0
2.923703458E0,-2.793620348E0,7.459624767E0,4.024727821E0
2.926056687E0,-2.809772015E0,7.617550850E0,4.047459602E0
2.928409969E0,-2.850450039E0,7.789236069E0,4.083950043E0
2.930763198E0,-2.866601467E0,7.951947689E0,4.125226021E0
2.933116427E0,-2.921636343E0,8.138587952E0,4.195216179E0
2.935469656E0,-2.980260611E0,8.338388443E0,4.178466320E0
2.937822885E0,-3.029911757E0,8.510073662E0,4.205385685E0
2.940176114E0,-3.083750248E0,8.687142372E0,4.179064751E0
2.942529344E0,-3.128017426E0,8.853444099E0,4.162913322E0
2.944882625E0,-3.181855917E0,9.039485931E0,4.161118507E0
2.947235854E0,-3.239881754E0,9.201599121E0,4.130012035E0
2.949589083E0,-3.298506021E0,9.372686386E0,4.128217220E0
2.951942312E0,-3.337987661E0,9.549157143E0,4.135993958E0
2.954295541E0,-3.425923824E0,9.735198975E0,4.142574310E0
2.956648771E0,-3.489931822E0,9.921240807E0,4.174279213E0
2.959002000E0,-3.552743435E0,1.008814049E1,4.143172264E0
2.961355281E0,-3.597608805E0,1.023111153E1,4.170091629E0
2.963708510E0,-3.665206194E0,1.036451149E1,4.182653904E0
2.966061739E0,-3.700500250E0,1.043150997E1,4.244269371E0
2.968414969E0,-3.748954773E0,1.048355389E1,4.290929317E0
2.970768198E0,-3.754338741E0,1.049791145E1,4.314857483E0
2.973121427E0,-3.759124279E0,1.051705360E1,4.328616142E0
2.975474656E0,-3.754338741E0,1.050748253E1,4.324428558E0
2.977827937E0,-3.735196114E0,1.048415279E1,4.324428558E0
2.980181166E0,-3.711866140E0,1.045065308E1,4.344169617E0
2.982534396E0,-3.687937975E0,1.038425159E1,4.383651257E0
2.984887625E0,-3.631108284E0,1.031366348E1,4.451846600E0
2.987240854E0,-3.593421459E0,1.023290634E1,4.496113777E0
2.989594083E0,-3.545564890E0,1.018086243E1,4.521238327E0
2.991947312E0,-3.497708559E0,1.010548782E1,4.532006264E0
2.994300594E0,-3.449851990E0,1.002473068E1,4.548157692E0
2.996653823E0,-3.401995659E0,9.929615974E0,4.568496704E0
2.999007052E0,-3.372085333E0,9.829715729E0,4.593621254E0
3.001360281E0,-3.309871912E0,9.743574142E0,4.614558697E0
3.003713510E0,-3.270390272E0,9.634101868E0,4.596612453E0
3.006066739E0,-3.241676569E0,9.543772697E0,4.626522541E0
3.008420021E0,-3.198605776E0,9.458230019E0,4.642076015E0
3.010773250E0,-3.206980467E0,9.357730865E0,4.647459984E0
3.013126479E0,-3.167499065E0,9.257830620E0,4.619942188E0
3.015479708E0,-3.166302681E0,9.171689034E0,4.606183529E0
3.017832937E0,-3.174677372E0,9.084949493E0,4.573282242E0
3.020186166E0,-3.178864956E0,9.023334503E0,4.578067780E0
3.022539396E0,-3.173480988E0,8.965906143E0,4.578666210E0
3.024892677E0,-3.196810961E0,8.908478737E0,4.588237286E0
3.027245906E0,-3.209971666E0,8.864809990E0,4.569094658E0
3.029599135E0,-3.248256683E0,8.874381065E0,4.587639332E0
3.031952364E0,-3.262613773E0,8.860024452E0,4.611567497E0
3.034305594E0,-3.291327477E0,8.840881348E0,4.630710125E0
3.036658823E0,-3.315854073E0,8.864809990E0,4.658825874E0
3.039012052E0,-3.354139090E0,8.878568649E0,4.663012981E0
3.041365333E0,-3.363710403E0,8.883354187E0,4.691727161E0
3.043718562E0,-3.387638569E0,8.887541771E0,4.676771641E0
3.046071791E0,-3.382853031E0,8.878568649E0,4.701298237E0
3.048425021E0,-3.359523058E0,8.878568649E0,4.715655327E0
3.050778250E0,-3.331407309E0,8.874381065E0,4.749752998E0
3.053131479E0,-3.293720484E0,8.874979019E0,4.769493580E0
3.055484708E0,-3.247060299E0,8.870791435E0,4.789234638E0
3.057837989E0,-3.209373474E0,8.880961418E0,4.804189682E0
3.060191219E0,-3.180659533E0,8.904889107E0,4.789832592E0
3.062544448E0,-3.143570662E0,8.924630165E0,4.809573650E0
3.064897677E0,-3.096910715E0,8.939585686E0,4.834099770E0
3.067250906E0,-3.064607620E0,8.949754715E0,4.887938499E0
3.069604135E0,-3.050848961E0,8.973683357E0,4.897509575E0
3.071957364E0,-3.017947674E0,8.993423462E0,4.912465096E0
3.074310646E0,-2.980260611E0,9.022137642E0,4.898108006E0
3.076663875E0,-2.956332445E0,9.031708717E0,4.884349346E0
3.079017104E0,-2.922832966E0,9.037093163E0,4.874777794E0
3.081370333E0,-2.903690338E0,9.027522087E0,4.850849628E0
3.083723562E0,-2.883949518E0,9.027522087E0,4.826921463E0
3.086076791E0,-2.850450039E0,9.022735596E0,4.808377266E0
3.088430021E0,-2.831307411E0,9.032307625E0,4.760520458E0
3.090783302E0,-2.834896564E0,9.031708717E0,4.698307037E0
3.093136531E0,-2.828914642E0,9.031708717E0,4.636094093E0
3.095489760E0,-2.856431961E0,9.035896301E0,4.587639332E0
3.097842989E0,-2.903092146E0,9.044271469E0,4.519443989E0
3.100196219E0,-2.916850805E0,9.034700394E0,4.490729809E0
3.102549448E0,-2.944966555E0,9.043673515E0,4.470989227E0
3.104902729E0,-2.981456995E0,9.028717995E0,4.403391838E0
3.107255958E0,-3.037688255E0,9.018548965E0,4.359723091E0
3.109609187E0,-3.089133978E0,9.003593445E0,4.339982033E0
3.111962416E0,-3.144767046E0,8.983254433E0,4.271786690E0
3.114315646E0,-3.200998545E0,8.963513374E0,4.252045631E0
3.116668875E0,-3.252444267E0,8.934201241E0,4.203591347E0
3.119022104E0,-3.298506021E0,8.924032211E0,4.150351048E0
3.121375385E0,-3.354737282E0,8.884550095E0,4.111467361E0
3.123728614E0,-3.430111170E0,8.850452423E0,4.082155228E0
3.126081844E0,-3.486342669E0,8.835497856E0,4.047459602E0
3.128435073E0,-3.542573929E0,8.805587769E0,4.008575916E0
3.130788302E0,-3.593421459E0,8.781061172E0,3.974478483E0
3.133141531E0,-3.645465374E0,8.766105652E0,3.954737663E0
3.135494760E0,-3.691527128E0,8.751151085E0,3.911068678E0
3.137848041E0,-3.710071564E0,8.722436905E0,3.896711588E0
3.140201271E0,-3.728615999E0,8.665008545E0,3.896711588E0
3.142554500E0,-3.756731510E0,8.654839516E0,3.876971006E0
3.144907729E0,-3.775275946E0,8.596813202E0,3.887140274E0
3.147260958E0,-3.769293785E0,8.548956871E0,3.863212109E0
3.149614187E0,-3.783650875E0,8.534600258E0,3.872783422E0
3.151967416E0,-3.798007727E0,8.529814720E0,3.877569199E0
3.154320698E0,-3.793222189E0,8.525029182E0,3.882354736E0
3.156673927E0,-3.826721668E0,8.510073662E0,3.896113396E0
3.159027156E0,-3.855435371E0,8.529216766E0,3.900899172E0
3.161380385E0,-3.850649834E0,8.529216766E0,3.929612875E0
3.163733614E0,-3.860819340E0,8.529814720E0,3.963112593E0
3.166086844E0,-3.894318819E0,8.514859200E0,3.986442566E0
3.168440125E0,-3.889533281E0,8.514859200E0,3.981656790E0
3.170793354E0,-3.898506403E0,8.462217331E0,3.996612072E0
3.173146583E0,-3.917050600E0,8.414361000E0,3.996612072E0
3.175499812E0,-3.888336897E0,8.391031265E0,4.001996040E0
3.177853041E0,-3.912265062E0,8.338388443E0,4.030709743E0
3.180206271E0,-3.902693748E0,8.333602905E0,4.045066833E0
3.182559500E0,-3.932005882E0,8.333602905E0,4.088137627E0
3.184912781E0,-3.955335855E0,8.323433876E0,4.063611031E0
3.187266010E0,-3.940380573E0,8.342576027E0,4.030111313E0
3.189619239E0,-3.954737663E0,8.356932640E0,4.020540237E0
3.191972469E0,-3.964308977E0,8.390432358E0,4.005585194E0
3.194325698E0,-3.959523201E0,8.380861282E0,4.000799656E0
3.196678927E0,-3.978665829E0,8.404191017E0,3.990629911E0
3.199032208E0,-3.964308977E0,8.376075745E0,3.996013880E0
3.201385437E0,-3.991826296E0,8.356334686E0,3.957130432E0
3.203738666E0,-4.004986763E0,8.307880402E0,3.938585997E0
3.206091896E0,-4.000799656E0,8.294121742E0,3.967299938E0
3.208445125E0,-4.028316975E0,8.250452042E0,3.933800459E0
3.210798354E0,-4.060619831E0,8.193024635E0,3.914657831E0
3.213151583E0,-4.088735580E0,8.139784813E0,3.924229145E0
3.215504812E0,-4.111467361E0,8.058428764E0,3.929014683E0
3.217858094E0,-4.153341770E0,8.009973526E0,3.914657831E0
3.220211323E0,-4.195814610E0,7.947760582E0,3.933202267E0
3.222564552E0,-4.238286972E0,7.928617954E0,3.961916208E0
3.224917781E0,-4.261617184E0,7.870592117E0,3.952344894E0
3.227271010E0,-4.313661098E0,7.880163193E0,3.955934048E0
3.229624239E0,-4.342374802E0,7.861020565E0,3.994219303E0
3.231977521E0,-4.376472473E0,7.860422611E0,4.036691666E0
3.234330750E0,-4.371686935E0,7.817949772E0,4.070789337E0
3.236683979E0,-4.347758770E0,7.775477409E0,4.076173306E0
3.239037208E0,-4.319045067E0,7.713263988E0,4.082155228E0
3.241390437E0,-4.289732933E0,7.632505894E0,4.082753658E0
3.243743666E0,-4.226921082E0,7.570890903E0,4.074976921E0
3.246096896E0,-4.165306091E0,7.533204079E0,4.066602230E0
3.248450177E0,-4.117449760E0,7.509275436E0,4.062414646E0
3.250803406E0,-4.073780537E0,7.475776196E0,4.039084435E0
3.253156635E0,-4.035495281E0,7.466803074E0,4.015754700E0
3.255509864E0,-3.982853174E0,7.452445984E0,3.988237143E0
3.257863094E0,-3.924827337E0,7.443472862E0,3.931407690E0
3.260216323E0,-3.885943890E0,7.381259441E0,3.889533281E0
3.262569604E0,-3.860819340E0,7.328617573E0,3.837489367E0
3.264922833E0,-3.821935892E0,7.280761242E0,3.795016766E0
3.267276062E0,-3.815953970E0,7.256833076E0,3.756731510E0
3.269629291E0,-3.834498405E0,7.265805721E0,3.727419376E0
3.271982521E0,-3.848855257E0,7.294519901E0,3.717249870E0
3.274335750E0,-3.863212109E0,7.351349354E0,3.673580885E0
3.276688979E0,-3.881756544E0,7.389036179E0,3.634697676E0
3.279042260E0,-3.882354736E0,7.436892986E0,3.619742393E0
3.281395489E0,-3.920041800E0,7.479365349E0,3.590430260E0
3.283748719E0,-3.943371773E0,7.517052174E0,3.527020693E0
3.286101948E0,-3.947559118E0,7.536194801E0,3.479164124E0
3.288455177E0,-3.979862213E0,7.554739475E0,3.425923824E0
3.290808406E0,-3.993022680E0,7.592426300E0,3.358326674E0
3.293161635E0,-4.054039955E0,7.596613884E0,3.314059258E0
3.295514916E0,-4.115654945E0,7.643273830E0,3.274577856E0
3.297868146E0,-4.128815651E0,7.671389580E0,3.197409153E0
3.300221375E0,-4.157529354E0,7.733004570E0,3.148356438E0
3.302574604E0,-4.204189301E0,7.804191113E0,3.089732170E0
3.304927833E0,-4.189832687E0,7.841877937E0,3.046661377E0
3.307281062E0,-4.232305050E0,7.922635555E0,2.983251572E0
3.309634291E0,-4.247260094E0,8.041678429E0,2.934198856E0
3.311987573E0,-4.237689018E0,8.141578674E0,2.890529871E0
3.314340802E0,-4.252644062E0,8.265407562E0,2.831905603E0
3.316694031E0,-4.243670940E0,8.399405479E0,2.801995277E0
3.319047260E0,-4.215555191E0,8.513663292E0,2.739183664E0
3.321400489E0,-4.183252335E0,8.638090134E0,2.700300455E0
3.323753719E0,-4.126422882E0,8.729615211E0,2.662015200E0
3.326107000E0,-4.060619831E0,8.830712318E0,2.619542599E0
3.328460229E0,-4.009174347E0,8.926424980E0,2.575873613E0
3.330813458E0,-3.924229145E0,9.037093163E0,2.547159672E0
3.333166687E0,-3.848855257E0,9.142376900E0,2.504687071E0
3.335519916E0,-3.783052683E0,9.233902931E0,2.485544443E0
3.337873146E0,-3.674777269E0,9.325428009E0,2.453241348E0
3.340226427E0,-3.576073408E0,9.393623352E0,2.453839540E0
3.342579656E0,-3.491726398E0,9.451649666E0,2.478964329E0
3.344932885E0,-3.382853031E0,9.529416084E0,2.489133835E0
3.347286114E0,-3.270988464E0,9.592825890E0,2.552543640E0
3.349639344E0,-3.177668571E0,9.637093544E0,2.621337175E0
3.351992573E0,-3.079562664E0,9.681360245E0,2.665604353E0
3.354345802E0,-2.976671457E0,9.735796928E0,2.743371248E0
3.356699083E0,-2.888136864E0,9.794421196E0,2.806781054E0
3.359052312E0,-2.813959360E0,9.848259926E0,2.869592667E0
3.361405541E0,-2.716451883E0,9.921240807E0,2.937788010E0
3.363758771E0,-2.642274380E0,1.000379372E1,2.971885681E0
3.366112000E0,-2.539382935E0,1.007198906E1,3.025724173E0
3.368465229E0,-2.474178553E0,1.012044334E1,3.055036306E0
3.370818458E0,-2.395215511E0,1.022154045E1,3.084348440E0
3.373171739E0,-2.306082726E0,1.030887794E1,3.099303484E0
3.375524969E0,-2.230708838E0,1.038604641E1,3.109472990E0
3.377878198E0,-2.169692039E0,1.042492962E1,3.138785124E0
3.380231427E0,-2.094317913E0,1.049252701E1,3.125026464E0
3.382584656E0,-2.009970903E0,1.051765156E1,3.154936552E0
3.384937885E0,-1.953739643E0,1.052303600E1,3.184248686E0
3.387291114E0,-1.892124534E0,1.051884842E1,3.209373474E0
3.389644396E0,-1.825125456E0,1.046680450E1,3.196212769E0
3.391997625E0,-1.772483349E0,1.040040398E1,3.197409153E0
3.394350854E0,-1.710269928E0,1.033878803E1,3.212962627E0
3.396704083E0,-1.680957913E0,1.023888779E1,3.199802160E0
3.399057312E0,-1.642074585E0,1.017667484E1,3.177070379E0
3.401410541E0,-1.626521230E0,1.006720352E1,3.173480988E0
3.403763823E0,-1.621137381E0,9.981060982E0,3.183650494E0
3.406117052E0,-1.615155339E0,9.899705887E0,3.155534744E0
3.408470281E0,-1.623530149E0,9.847063065E0,3.136392355E0
3.410823510E0,-1.647458434E0,9.780064583E0,3.170490026E0
3.413176739E0,-1.679761529E0,9.770493507E0,3.155534744E0
3.415529969E0,-1.684547186E0,9.779465675E0,3.145963669E0
3.417883198E0,-1.741974831E0,9.831509590E0,3.144767046E0
3.420236479E0,-1.767099500E0,9.888937950E0,3.172284603E0
3.422589708E0,-1.791625977E0,9.979267120E0,3.171686411E0
3.424942937E0,-1.811366796E0,1.008455086E1,3.180061340E0
3.427296166E0,-1.817947030E0,1.018505001E1,3.212962627E0
3.429649396E0,-1.847857237E0,1.028554821E1,3.250051260E0
3.432002625E0,-1.872383714E0,1.037109184E1,3.244069338E0
3.434355906E0,-1.821536183E0,1.041954613E1,3.287738323E0
3.436709135E0,-1.803590059E0,1.043928719E1,3.330809116E0
3.439062364E0,-1.794616938E0,1.047757244E1,3.354737282E0
3.441415594E0,-1.767099500E0,1.048774147E1,3.403192043E0
3.443768823E0,-1.744367719E0,1.048833942E1,3.446861029E0
3.446122052E0,-1.706680775E0,1.050329494E1,3.480360508E0
3.448475281E0,-1.679163337E0,1.051286602E1,3.500101328E0
3.450828562E0,-1.655833244E0,1.052303600E1,3.534198999E0
3.453181791E0,-1.613958836E0,1.053320503E1,3.568296671E0
3.455535021E0,-1.571486235E0,1.050987530E1,3.597608805E0
3.457888250E0,-1.543370605E0,1.049133110E1,3.622135162E0
3.460241479E0,-1.472184181E0,1.045364380E1,3.656831264E0
3.462594708E0,-1.382453322E0,1.040279675E1,3.711267948E0
3.464947989E0,-1.316052437E0,1.031725311E1,3.756731510E0
3.467301219E0,-1.225723386E0,1.021316528E1,3.797409534E0
3.469654448E0,-1.139581800E0,1.013300610E1,3.847060680E0
3.472007677E0,-1.054038405E0,1.002891827E1,3.877569199E0
3.474360906E0,-9.774680734E-1,9.915258408E0,3.903890133E0
3.476714135E0,-9.248259664E-1,9.853643417E0,3.914657831E0
3.479067364E0,-8.428717852E-1,9.725028992E0,3.935595036E0
3.481420646E0,-7.848458290E-1,9.625128746E0,3.918246984E0
3.483773875E0,-7.363911867E-1,9.525228500E0,3.914657831E0
3.486127104E0,-6.879364848E-1,9.430113792E0,3.901497364E0
3.488480333E0,-6.538388133E-1,9.367900848E0,3.888336897E0
3.490833562E0,-6.149554253E-1,9.287142754E0,3.865604877E0
3.493186791E0,-5.653043389E-1,9.172286987E0,3.799802303E0
3.495540073E0,-5.545366406E-1,9.096315384E0,3.786043644E0
3.497893302E0,-5.347958803E-1,8.991030693E0,3.782454491E0
3.500246531E0,-4.995017350E-1,8.904889107E0,3.730410576E0
3.502599760E0,-4.558327198E-1,8.814560890E0,3.707678795E0
3.504952989E0,-4.025924206E-1,8.719446182E0,3.689732552E0
3.507306219E0,-3.780659735E-1,8.671588898E0,3.671188116E0
3.509659448E0,-3.481557071E-1,8.603992462E0,3.643670797E0
3.512012729E0,-2.955136001E-1,8.571090698E0,3.605983734E0
3.514365958E0,-2.656033039E-1,8.513663292E0,3.559323788E0
3.516719187E0,-2.213360965E-1,8.456234932E0,3.507279873E0
3.519072416E0,-1.776670814E-1,8.428119659E0,3.460619688E0
3.521425646E0,-1.244267747E-1,8.380263329E0,3.394218922E0
3.523778875E0,-8.434699476E-2,8.351549149E0,3.294318676E0
3.526132156E0,-3.110669367E-2,8.313263893E0,3.238087177E0
3.528485385E0,1.375873014E-2,8.279764175E0,3.181257725E0
3.530838614E0,7.118647546E-2,8.275577545E0,3.148356438E0
3.533191844E0,1.375873089E-1,8.280961037E0,3.116053343E0
3.535545073E0,1.812563092E-1,8.271389961E0,3.078366280E0
3.537898302E0,2.482553422E-1,8.276773453E0,3.035893679E0
3.540251583E0,3.056831062E-1,8.300702095E0,2.988635540E0
3.542604812E0,3.816552162E-1,8.315656662E0,2.951546669E0
3.544958041E0,4.247260094E-1,8.330014229E0,2.904288530E0
3.547311271E0,4.779663086E-1,8.358727455E0,2.846860647E0
3.549664500E0,5.204389095E-1,8.383254051E0,2.833101988E0
3.552017729E0,5.820540786E-1,8.421539307E0,2.809772015E0
3.554370958E0,6.155536175E-1,8.426922798E0,2.786442041E0
3.556724239E0,6.484549642E-1,8.460422516E0,2.786442041E0
3.559077469E0,6.903293133E-1,8.508278847E0,2.767299414E0
3.561430698E0,7.184450030E-1,8.595019341E0,2.757728100E0
3.563783927E0,7.280163169E-1,8.657232285E0,2.709273338E0
3.566137156E0,7.746763229E-1,8.753543854E0,2.704487801E0
3.568490385E0,8.027920127E-1,8.819944382E0,2.661417007E0
3.570843614E0,8.219345808E-1,8.872586250E0,2.632703066E0
3.573196896E0,8.356932998E-1,8.949156761E0,2.588435888E0
3.575550125E0,8.362914920E-1,9.025128365E0,2.506481647E0
3.577903354E0,8.422735929E-1,9.058030128E0,2.424527645E0
3.580256583E0,8.476574421E-1,9.105288506E0,2.338385820E0
3.582609812E0,8.153542876E-1,9.157332420E0,2.265404940E0
3.584963094E0,8.111668825E-1,9.166305542E0,2.207378864E0
3.587316323E0,7.884350419E-1,9.194420815E0,2.139781713E0
3.589669552E0,8.039883971E-1,9.236893654E0,2.034497499E0
3.592022781E0,7.663014531E-1,9.245866776E0,1.986042738E0
3.594376010E0,7.435696125E-1,9.254839897E0,1.913659930E0
3.596729239E0,7.256234884E-1,9.263813019E0,1.855633974E0
3.599082469E0,7.034898400E-1,9.282357216E0,1.764108539E0
3.601435750E0,6.765705943E-1,9.257232666E0,1.691725612E0
3.603788979E0,6.723831892E-1,9.271589279E0,1.639083505E0
3.606142208E0,6.538388133E-1,9.270991325E0,1.590628862E0
3.608495437E0,6.454638839E-1,9.279964447E0,1.542772412E0
3.610848666E0,6.275177598E-1,9.260223389E0,1.465005636E0
3.613201896E0,6.376872063E-1,9.222537041E0,1.465603828E0
3.615555177E0,6.580262184E-1,9.178867340E0,1.399203062E0
3.617908406E0,6.681957245E-1,9.145368576E0,1.380658627E0
3.620261635E0,6.933203340E-1,9.074181557E0,1.338186026E0
3.622614864E0,7.274180651E-1,8.997611046E0,1.325025558E0
3.624968094E0,7.800601721E-1,8.935996056E0,1.326221943E0
3.627321323E0,8.285148144E-1,8.869595528E0,1.313061476E0
3.629674604E0,8.763712645E-1,8.793622971E0,1.314257860E0
3.632027833E0,9.152546525E-1,8.721838951E0,1.295713425E0
3.634381062E0,9.493523836E-1,8.655437469E0,1.287338614E0
3.636734291E0,1.001994491E0,8.607581139E0,1.302891970E0
3.639087521E0,1.016949654E0,8.531609535E0,1.298704505E0
3.641440750E0,1.021735311E0,8.464610100E0,1.328016520E0
3.643793979E0,1.055234790E0,8.412566185E0,1.353141189E0
3.646147260E0,1.093519926E0,8.346165657E0,1.387837172E0
3.648500489E0,1.112662554E0,8.308478355E0,1.417149186E0
3.650853719E0,1.131805062E0,8.232506752E0,1.456032634E0
3.653206948E0,1.141376376E0,8.179863930E0,1.490728498E0
3.655560177E0,1.150349498E0,8.132605553E0,1.558325768E0
3.657913406E0,1.173679471E0,8.099704742E0,1.582852125E0
3.660266687E0,1.187438250E0,8.095517159E0,1.621735573E0
3.662619916E0,1.205982566E0,8.109873772E0,1.640878081E0
3.664973146E0,1.200598717E0,8.114660263E0,1.664806366E0
3.667326375E0,1.210170031E0,8.129016876E0,1.669592023E0
3.669679604E0,1.215553880E0,8.119445801E0,1.621735573E0
3.672032833E0,1.201196909E0,8.114660263E0,1.640878081E0
3.674386062E0,1.191625714E0,8.124231339E0,1.625923038E0
3.676739344E0,1.173081279E0,8.085348129E0,1.635494232E0
3.679092573E0,1.140179992E0,8.109275818E0,1.606182218E0
3.681445802E0,1.116850019E0,8.094321251E0,1.606182218E0
3.683799031E0,1.073180914E0,8.113463402E0,1.629512191E0
3.686152260E0,1.024726272E0,8.155936241E0,1.637887120E0
3.688505489E0,9.732806087E-1,8.188837051E0,1.603191137E0
3.690858771E0,9.343972206E-1,8.236095428E0,1.631306887E0
3.693212000E0,8.955138922E-1,8.288139343E0,1.630110383E0
3.695565229E0,8.626125455E-1,8.340183258E0,1.596012712E0
3.697918458E0,8.285148144E-1,8.411968231E0,1.599601984E0
3.700271687E0,8.093722463E-1,8.449654579E0,1.579861164E0
3.702624916E0,7.854440212E-1,8.511270523E0,1.560120344E0
3.704978198E0,7.800601721E-1,8.539983749E0,1.573879123E0
3.707331427E0,7.555337548E-1,8.568697929E0,1.601994753E0
3.709684656E0,7.555337548E-1,8.597412109E0,1.606780410E0
3.712037885E0,7.411768436E-1,8.621339798E0,1.606182218E0
3.714391114E0,7.310073376E-1,8.665008545E0,1.615753531E0
3.716744344E0,7.160521746E-1,8.722436905E0,1.629512191E0
3.719097573E0,7.106683254E-1,8.755337715E0,1.624128342E0
3.721450854E0,6.819544435E-1,8.803194046E0,1.618744493E0
3.723804083E0,6.807580590E-1,8.894122124E0,1.651645780E0
3.726157312E0,6.556333899E-1,8.965906143E0,1.679163337E0
3.728510541E0,6.311069727E-1,9.032307625E0,1.697707653E0
3.730863771E0,6.149554253E-1,9.166305542E0,1.725225091E0
3.733217000E0,5.802595019E-1,9.285347939E0,1.733600020E0
3.735570281E0,5.730810165E-1,9.438488960E0,1.785045743E0
3.737923510E0,5.437689424E-1,9.548559189E0,1.802991867E0
3.740276739E0,5.365904570E-1,9.696913719E0,1.844866276E0
3.742629969E0,5.252245665E-1,9.831509590E0,1.877169371E0
3.744983198E0,5.000999570E-1,9.945767403E0,1.881356835E0
3.747336427E0,4.989035130E-1,1.005583763E1,1.894517303E0
3.749689708E0,5.072783828E-1,1.016590691E1,1.913061738E0
3.752042937E0,4.917250574E-1,1.025683403E1,1.922034740E0
3.754396166E0,4.767699242E-1,1.035194874E1,1.901695848E0
3.756749396E0,4.767699242E-1,1.039023399E1,1.892124534E0
3.759102625E0,4.851447940E-1,1.050927734E1,1.871785522E0
3.761455854E0,4.701896608E-1,1.057149029E1,1.871187329E0
3.763809135E0,5.078766346E-1,1.059541893E1,1.862214208E0
3.766162364E0,5.880361795E-1,1.059182930E1,1.887338877E0
3.768515594E0,6.059823632E-1,1.065882874E1,1.906481385E0
3.770868823E0,4.474578202E-1,1.091605663E1,1.877767563E0
3.773222052E0,4.097708762E-1,1.101117134E1,1.814357758E0
3.775575281E0,3.577269912E-1,1.106740284E1,1.770090580E0
3.777928510E0,3.200400174E-1,1.108594704E1,1.750349760E0
3.780281791E0,3.206382394E-1,1.110030460E1,1.707278967E0
3.782635021E0,3.032902777E-1,1.105663490E1,1.634896040E0
3.784988250E0,3.565305769E-1,1.102792168E1,1.583450437E0
3.787341479E0,3.236292601E-1,1.105125141E1,1.530210137E0
3.789694708E0,3.104687333E-1,1.107458115E1,1.447657704E0
3.792047937E0,2.877369225E-1,1.109791183E1,1.370489120E0
3.794401219E0,2.602194548E-1,1.111645603E1,1.302891970E0
3.796754448E0,2.656033039E-1,1.116849995E1,1.249651670E0
3.799107677E0,2.518445849E-1,1.115832996E1,1.206580877E0
3.801460906E0,2.291127741E-1,1.115354443E1,1.162911773E0
3.803814135E0,2.249253243E-1,1.113440228E1,1.158126116E0
3.806167364E0,2.440679073E-1,1.110090256E1,1.153938770E0
3.808520646E0,2.440679073E-1,1.105783176E1,1.163509965E0
3.810873875E0,2.775674164E-1,1.101057339E1,1.193420291E0
3.813227104E0,2.961117923E-1,1.097288609E1,1.232303619E0
3.815580333E0,3.008974493E-1,1.089691448E1,1.285543919E0
3.817933562E0,3.529413342E-1,1.083948612E1,1.334596872E0
3.820286791E0,3.906283081E-1,1.076830006E1,1.393221021E0
3.822640073E0,4.468596280E-1,1.071206856E1,1.462014675E0
3.824993302E0,4.749752879E-1,1.068395329E1,1.496710539E0
3.827346531E0,5.120640397E-1,1.062772179E1,1.574477315E0
3.829699760E0,5.353940725E-1,1.059960651E1,1.646860242E0
3.832052989E0,5.341976285E-1,1.060917759E1,1.718644857E0
3.834406219E0,5.659025311E-1,1.061994553E1,1.786242127E0
3.836759448E0,6.023930907E-1,1.064447117E1,1.862812400E0
3.839112729E0,6.340979934E-1,1.067378330E1,1.939980984E0
3.841465958E0,6.520441771E-1,1.068395329E1,2.002792597E0
3.843819187E0,6.693921089E-1,1.071805096E1,2.060220242E0
3.846172416E0,7.064808607E-1,1.071864891E1,2.137388945E0
3.848525646E0,7.345965505E-1,1.069531918E1,2.171486616E0
3.850878875E0,7.238288522E-1,1.068156052E1,2.248056889E0
3.853232156E0,7.322037220E-1,1.064865875E1,2.325225353E0
3.855585385E0,7.405785918E-1,1.065882874E1,2.401795626E0
3.857938614E0,7.202396393E-1,1.067797089E1,2.468794823E0
3.860291844E0,7.046862841E-1,1.071625614E1,2.539981127E0
3.862645073E0,6.843472719E-1,1.078804111E1,2.577668190E0
3.864998302E0,6.209374666E-1,1.087418270E1,2.624926329E0
3.867351583E0,6.000002623E-1,1.099442196E1,2.695514679E0
3.869704812E0,5.270192027E-1,1.112722397E1,2.708076954E0
3.872058041E0,5.018945336E-1,1.124686432E1,2.745165825E0
3.874411271E0,4.666004181E-1,1.138026428E1,2.762513638E0
3.876764500E0,4.462614357E-1,1.145683479E1,2.800200701E0
3.879117729E0,4.211367965E-1,1.152383423E1,2.847458839E0
3.881471010E0,4.061816335E-1,1.156690502E1,2.894717216E0
3.883824239E0,4.139583111E-1,1.158185959E1,2.961716175E0
3.886177469E0,3.846462369E-1,1.157707405E1,3.038286448E0
3.888530698E0,3.696911037E-1,1.154417324E1,3.105285645E0
3.890883927E0,3.457628787E-1,1.149153042E1,3.162713289E0
3.893237156E0,3.212364316E-1,1.148734283E1,3.220141172E0
3.895590385E0,2.919243574E-1,1.146820068E1,3.262613773E0
3.897943666E0,2.297109663E-1,1.148674488E1,3.305086374E0
3.900296896E0,1.812563092E-1,1.154835987E1,3.342175007E0
3.902650125E0,9.451649338E-2,1.160997581E1,3.383451223E0
3.905003354E0,2.273181453E-2,1.168594742E1,3.387040377E0
3.907356583E0,-3.110669367E-2,1.174277687E1,3.404986620E0
3.909709812E0,-1.070788130E-1,1.178524971E1,3.403192043E0
3.912063094E0,-1.788634956E-1,1.178943729E1,3.416950703E0
3.914416323E0,-2.207378894E-1,1.175055408E1,3.411566973E0
3.916769552E0,-2.775674164E-1,1.170748329E1,3.444468260E0
3.919122781E0,-2.961117923E-1,1.162134171E1,3.459423304E0
3.921476010E0,-3.571287692E-1,1.151605701E1,3.512065411E0
3.923829239E0,-3.894318938E-1,1.139103222E1,3.517449379E0
3.926182521E0,-4.313062727E-1,1.128574753E1,3.527020693E0
3.928535750E0,-4.917250574E-1,1.118943691E1,3.541377544E0
3.930888979E0,-5.665007830E-1,1.111226845E1,3.521636724E0
3.933242208E0,-6.269195080E-1,1.104945660E1,3.482753277E0
3.935595437E0,-7.256234884E-1,1.101954651E1,3.467200041E0
3.937948666E0,-7.914260626E-1,1.097587776E1,3.457030535E0
3.940301948E0,-8.488538265E-1,1.098963642E1,3.474976778E0
3.942655177E0,-9.104689956E-1,1.098006535E1,3.479164124E0
3.945008406E0,-9.667003751E-1,1.092682457E1,3.464209080E0
3.947361635E0,-1.042074203E0,1.086341476E1,3.477967739E0
3.949714864E0,-1.074377418E0,1.080060291E1,3.487539053E0
3.952068094E0,-1.103091240E0,1.070070267E1,3.540779352E0
3.954421375E0,-1.144965649E0,1.061396313E1,3.559921980E0
3.956774604E0,-1.173081279E0,1.050449181E1,3.594019651E0
3.959127833E0,-1.191625714E0,1.037527943E1,3.618546009E0
3.961481062E0,-1.204786181E0,1.023170948E1,3.662214994E0
3.963834291E0,-1.213759303E0,1.011266708E1,3.716053486E0
3.966187521E0,-1.217946768E0,1.001276588E1,3.750749588E0
3.968540802E0,-1.250249863E0,9.888339996E0,3.775275946E0
3.970894031E0,-1.255035520E0,9.783055305E0,3.818944931E0
3.973247260E0,-1.267597795E0,9.648459435E0,3.839283943E0
3.975600489E0,-1.266999602E0,9.495916367E0,3.878765583E0
3.977953719E0,-1.294517040E0,9.348159790E0,3.927220106E0
3.980306948E0,-1.280160069E0,9.200403214E0,3.990629911E0
3.982660229E0,-1.287936807E0,9.023334503E0,4.025325775E0
3.985013458E0,-1.287338614E0,8.875576973E0,4.055236340E0
3.987366687E0,-1.286142230E0,8.727820396E0,4.094717979E0
3.989719916E0,-1.289731383E0,8.583653450E0,4.115056515E0
3.992073146E0,-1.283151150E0,8.407182693E0,4.121038914E0
3.994426375E0,-1.296311617E0,8.263612747E0,4.146163464E0
3.996779656E0,-1.299900889E0,8.115856171E0,4.161118507E0
3.999132885E0,-1.307677627E0,7.972286701E0,4.162314892E0
4.001486114E0,-1.316052437E0,7.838288784E0,4.167698860E0
4.003839344E0,-1.333998680E0,7.704290867E0,4.183252335E0
4.006192573E0,-1.346560955E0,7.570292473E0,4.164707661E0
4.008545802E0,-1.350150228E0,7.483552933E0,4.165306091E0
4.010899083E0,-1.392024517E0,7.411170006E0,4.141377926E0
4.013252312E0,-1.428515077E0,7.358527660E0,4.116851330E0
4.015605541E0,-1.470987678E0,7.338787079E0,4.101896286E0
4.017958771E0,-1.499701619E0,7.366902828E0,4.096512318E0
4.020312000E0,-1.561316729E0,7.375875950E0,4.100699902E0
4.022665229E0,-1.609173179E0,7.456633568E0,4.075575352E0
4.025018458E0,-1.676172256E0,7.566703320E0,4.049852371E0
4.027371739E0,-1.738983870E0,7.685148239E0,4.028914928E0
4.029724969E0,-1.782054663E0,7.804191113E0,3.984049797E0
4.032078198E0,-1.854437590E0,7.913064480E0,3.987040758E0
4.034431427E0,-1.935793519E0,8.008178711E0,3.999603033E0
4.036784656E0,-2.003390789E0,8.079365730E0,4.016951084E0
4.039137885E0,-2.108675003E0,8.183453560E0,4.039084435E0
4.041491166E0,-2.190030813E0,8.254041672E0,4.013361931E0
4.043844396E0,-2.295913219E0,8.363512993E0,4.015754700E0
4.046197625E0,-2.438884497E0,8.476573944E0,3.984049797E0
4.048550854E0,-2.582453728E0,8.627920151E0,3.975674868E0
4.050904083E0,-2.715255499E0,8.808578491E0,3.896113396E0
4.053257312E0,-2.849851847E0,9.022137642E0,3.863810301E0
4.055610594E0,-3.017349243E0,9.268598557E0,3.802195072E0
4.057963823E0,-3.156133175E0,9.524630547E0,3.716053486E0
4.060317052E0,-3.285345554E0,9.781859398E0,3.649652719E0
4.062670281E0,-3.376870871E0,1.003370380E1,3.579662561E0
4.065023510E0,-3.477967739E0,1.021376324E1,3.519243956E0
4.067363666E0,-3.535993576E0,1.036630630E1,3.474378586E0
4.069730021E0,-3.560520172E0,1.044227791E1,3.477967739E0
4.072083250E0,-3.584448338E0,1.043749237E1,3.501895905E0
4.074436479E0,-3.594019651E0,1.040399265E1,3.525824070E0
4.076789708E0,-3.570091486E0,1.032802105E1,3.565305710E0
4.079142937E0,-3.565305710E0,1.026640511E1,3.594617844E0
4.081496219E0,-3.530609846E0,1.015633583E1,3.591028690E0
4.083849448E0,-3.521636724E0,1.008096218E1,3.682554007E0
4.086202677E0,-3.479164124E0,1.001456070E1,3.712464333E0
4.088555906E0,-3.444468260E0,9.942776680E0,3.684946775E0
4.090909135E0,-3.367299557E0,9.862018585E0,3.671786308E0
4.093262364E0,-3.333201885E0,9.776474953E0,3.682554007E0
4.095615646E0,-3.261417150E0,9.681360245E0,3.698705673E0
4.097968875E0,-3.203391314E0,9.562317848E0,3.710071564E0
4.100322104E0,-3.122035265E0,9.448657990E0,3.722035646E0
4.102675333E0,-3.092723370E0,9.320044518E0,3.752544165E0
4.105028562E0,-3.039483070E0,9.157930374E0,3.768695593E0
4.107381791E0,-2.995215654E0,9.024530411E0,3.780061483E0
4.109735021E0,-2.961117983E0,8.872586250E0,3.796213150E0
4.112088302E0,-2.935993433E0,8.733802795E0,3.816552162E0
4.114441531E0,-2.953341246E0,8.594420433E0,3.783650875E0
4.116794760E0,-2.941975355E0,8.456234932E0,3.784847260E0
4.119147989E0,-2.982653379E0,8.335995674E0,3.722035646E0
4.121501219E0,-2.999403238E0,8.206185341E0,3.665206194E0
4.123854448E0,-3.035295486E0,8.119445801E0,3.602992773E0
4.126207729E0,-3.099303484E0,8.041678429E0,3.516252756E0
4.128560958E0,-3.159722328E0,7.983652592E0,3.463610888E0
4.130914187E0,-3.196212769E0,7.949554920E0,3.410370588E0
4.133267416E0,-3.266801119E0,7.919644833E0,3.370888948E0
4.135620646E0,-3.327219963E0,7.899903774E0,3.312862873E0
4.137973927E0,-3.393022537E0,7.917850018E0,3.278167009E0
4.140327156E0,-3.421736479E0,7.927421570E0,3.272783279E0
4.142680385E0,-3.473780155E0,7.912466049E0,3.257827997E0
4.145033614E0,-3.497708559E0,7.954938889E0,3.257229805E0
4.147386844E0,-3.525824070E0,7.954938889E0,3.223132133E0
4.149740073E0,-3.544966698E0,7.963912010E0,3.218346357E0
4.152093354E0,-3.540181160E0,7.978269100E0,3.203989506E0
4.154446583E0,-3.525225878E0,7.978269100E0,3.175275564E0
4.156799812E0,-3.492324591E0,7.988438606E0,3.175275564E0
4.159153041E0,-3.477369547E0,7.983054638E0,3.123231649E0
4.161506271E0,-3.443271875E0,7.974081516E0,3.099901676E0
4.163859500E0,-3.381058455E0,7.988438606E0,3.062214851E0
4.166212781E0,-3.352942705E0,8.027321815E0,3.062214851E0
4.168566010E0,-3.291327477E0,8.065607071E0,3.053241730E0
4.170919239E0,-3.248854876E0,8.099704742E0,3.053839922E0
4.173272469E0,-3.211766243E0,8.171489716E0,3.025125980E0
4.175625698E0,-3.193221807E0,8.248059273E0,3.010170937E0
4.177978927E0,-3.141776085E0,8.339585304E0,2.991028309E0
4.180332156E0,-3.104089260E0,8.430512428E0,2.947957516E0
4.182685437E0,-3.071187973E0,8.544769287E0,2.909074068E0
4.185038666E0,-3.029313564E0,8.626724243E0,2.904288530E0
4.187391896E0,-2.987439156E0,8.732605934E0,2.889931440E0
4.189745125E0,-2.931207657E0,8.804988861E0,2.875574589E0
4.192098354E0,-2.889333248E0,8.891130447E0,2.856431961E0
4.194451635E0,-2.823530674E0,8.953942299E0,2.866601467E0
4.196804864E0,-2.772084951E0,9.044869423E0,2.842673302E0
4.199158094E0,-2.715853691E0,9.107681274E0,2.828914642E0
4.201511323E0,-2.668595552E0,9.179466248E0,2.809772015E0
4.203864552E0,-2.607578516E0,9.247062683E0,2.776272535E0
4.206217781E0,-2.593819857E0,9.352347374E0,2.761317253E0
4.208571062E0,-2.519043922E0,9.434301376E0,2.752344131E0
4.210924291E0,-2.485544443E0,9.482157707E0,2.714059114E0
4.213277521E0,-2.443071842E0,9.558728218E0,2.685345173E0
4.215630750E0,-2.404786825E0,9.587442398E0,2.623729944E0
4.217983979E0,-2.404786825E0,9.625727654E0,2.608176708E0
4.220337208E0,-2.408974171E0,9.653842926E0,2.560320139E0
4.222690489E0,-2.389831543E0,9.692128181E0,2.497508526E0
4.225043719E0,-2.408375978E0,9.696315765E0,2.483151674E0
4.227396948E0,-2.431705952E0,9.719645500E0,2.453839540E0
4.229750177E0,-2.455634356E0,9.734002113E0,2.453241348E0
4.232103406E0,-2.475374937E0,9.768099785E0,2.462214470E0
4.234456635E0,-2.504088879E0,9.781859398E0,2.471187592E0
4.236809916E0,-2.546561480E0,9.791430473E0,2.484946251E0
4.239163146E0,-2.570489645E0,9.809974670E0,2.484348059E0
4.241516375E0,-2.613560438E0,9.824331284E0,2.507678032E0
4.243869604E0,-2.618346214E0,9.781260490E0,2.508276224E0
4.246222833E0,-2.627917528E0,9.809376717E0,2.493321180E0
4.248576062E0,-2.641676188E0,9.818947792E0,2.493321180E0
4.250929344E0,-2.651247501E0,9.833304405E0,2.487937450E0
4.253282573E0,-2.675773859E0,9.857233047E0,2.511267424E0
4.255635802E0,-2.685345173E0,9.866804123E0,2.501696110E0
4.257989031E0,-2.681157827E0,9.900303841E0,2.535195589E0
4.260342260E0,-2.686541557E0,9.914660454E0,2.559123755E0
4.262695489E0,-2.682354212E0,9.938589096E0,2.583052158E0
4.265048771E0,-2.682952404E0,9.929615974E0,2.631506681E0
4.267402000E0,-2.659622431E0,9.939187050E0,2.650649309E0
4.269755229E0,-2.660818815E0,9.968499184E0,2.693720102E0
4.272108458E0,-2.647060156E0,9.997213364E0,2.708076954E0
4.274461687E0,-2.627917528E0,9.997213364E0,2.694318295E0
4.276814969E0,-2.609373093E0,1.002114105E1,2.708675146E0
4.279168198E0,-2.585444927E0,1.001216793E1,2.689532757E0
4.281521427E0,-2.557927370E0,1.002233791E1,2.728415966E0
4.283874656E0,-2.520240545E0,1.002712345E1,2.762513638E0
4.286227885E0,-2.487937450E0,1.003729248E1,2.782254457E0
4.288581114E0,-2.449652195E0,1.004267693E1,2.787638426E0
4.290934396E0,-2.407179594E0,1.005703354E1,2.782852650E0
4.293287625E0,-2.355733871E0,1.007198906E1,2.798406124E0
4.295640854E0,-2.318645239E0,1.009172916E1,2.831905603E0
4.297994083E0,-2.262413740E0,1.010249710E1,2.914458036E0
4.300347312E0,-2.197807550E0,1.014197922E1,2.991626501E0
4.302700594E0,-2.142174482E0,1.016650486E1,3.044866800E0
4.305053823E0,-2.072782516E0,1.022512913E1,3.113062143E0
4.307407052E0,-2.002194405E0,1.025444126E1,3.137588739E0
4.309760281E0,-1.926820397E0,1.028375340E1,3.162713289E0
4.312113510E0,-1.861616015E0,1.030409241E1,3.201596737E0
4.314466739E0,-1.771885157E0,1.032861900E1,3.217149973E0
4.316820021E0,-1.696511269E0,1.032981491E1,3.218346357E0
4.319173250E0,-1.634896040E0,1.030648518E1,3.253042459E0
4.321526479E0,-1.568495274E0,1.030229759E1,3.263211966E0
4.323879708E0,-1.493121386E0,1.030349445E1,3.278765202E0
4.326232937E0,-1.436291814E0,1.028973579E1,3.284747362E0
4.328586166E0,-1.398604870E0,1.025623608E1,3.304488182E0
4.330939396E0,-1.341177106E0,1.022871876E1,3.315255880E0
4.333292677E0,-1.307677627E0,1.019521904E1,3.301496983E0
4.335645906E0,-1.279561877E0,1.018624592E1,3.311666489E0
4.337999135E0,-1.250249863E0,1.013360405E1,3.307479143E0
4.340352364E0,-1.197009563E0,1.011505985E1,3.265604734E0
4.342705594E0,-1.187438250E0,1.009113121E1,3.256033421E0
4.345058875E0,-1.158724308E0,1.008156013E1,3.251846075E0
4.347412104E0,-1.138983607E0,1.009113121E1,3.213560820E0
4.349765333E0,-1.119242787E0,1.009113121E1,3.180659533E0
4.352118562E0,-1.104885817E0,1.011505985E1,3.137588739E0
4.354471791E0,-1.080359459E0,1.011505985E1,3.104089260E0
4.356825021E0,-1.051047325E0,1.011505985E1,3.061616659E0
4.359178302E0,-1.013360381E0,1.014377308E1,3.037688255E0
4.361531531E0,-9.661021233E-1,1.014915752E1,3.028715372E0
4.363884760E0,-9.128618240E-1,1.013958549E1,2.995813847E0
4.366237989E0,-8.937192559E-1,1.014437199E1,2.972483873E0
4.368591219E0,-8.554341197E-1,1.015454102E1,2.943770170E0
4.370944500E0,-8.213363886E-1,1.015454102E1,2.891726255E0
4.373297729E0,-7.914260626E-1,1.016829967E1,2.791227579E0
4.375650958E0,-7.555337548E-1,1.017906761E1,2.901895761E0
4.378004187E0,-7.088736892E-1,1.025563812E1,2.878565550E0
4.380357416E0,-6.741777658E-1,1.027478027E1,2.773281336E0
4.382710646E0,-6.496513486E-1,1.032682419E1,2.696711063E0
4.385063927E0,-6.065805554E-1,1.035553837E1,2.648854733E0
4.387417156E0,-5.874379873E-1,1.038903809E1,2.600399971E0
4.389770385E0,-5.162515044E-1,1.040877819E1,2.596810818E0
4.392123614E0,-4.827519655E-1,1.042313576E1,2.587239504E0
4.394476844E0,-4.402793646E-1,1.044766140E1,2.554338217E0
4.396830073E0,-4.109672904E-1,1.046680450E1,2.506481647E0
4.399183354E0,-3.445664644E-1,1.049073315E1,2.473580360E0
4.401536583E0,-3.062812984E-1,1.049133110E1,2.435893536E0
4.403889812E0,-2.667997181E-1,1.047697353E1,2.374278307E0
4.406243041E0,-2.231307179E-1,1.044826031E1,2.312663078E0
4.408596271E0,-1.651047617E-1,1.040518951E1,2.266003132E0
4.410949500E0,-1.016949639E-1,1.031007481E1,2.219941139E0
4.413302781E0,-1.854437590E-2,1.020060253E1,2.183450699E0
4.415656010E0,6.340979785E-2,1.009651470E1,2.161317110E0
4.418009239E0,1.501496136E-1,9.987043381E0,2.139183521E0
4.420362469E0,2.464607358E-1,9.882955551E0,2.112862349E0
4.422715698E0,3.332005441E-1,9.768698692E0,2.062014818E0
4.425068979E0,4.342973232E-1,9.658628464E0,2.030908108E0
4.427422208E0,5.312066078E-1,9.540184021E0,1.984846354E0
4.429775437E0,6.275177598E-1,9.425926208E0,1.953739643E0
4.432128666E0,6.819544435E-1,9.268598557E0,1.917249203E0
4.434481896E0,7.501499057E-1,9.111269951E0,1.905285001E0
4.436835125E0,8.327022791E-1,8.954540253E0,1.898106575E0
4.439188406E0,8.865407705E-1,8.821140289E0,1.861017823E0
4.441541635E0,9.409775138E-1,8.677571297E0,1.810170293E0
4.443894864E0,9.762716293E-1,8.548358917E0,1.758724689E0
4.446248094E0,1.006780148E0,8.447860718E0,1.707278967E0
4.448601323E0,1.013360381E0,8.332406998E0,1.646261930E0
4.450954552E0,1.030110121E0,8.251050949E0,1.560718536E0
4.453307833E0,1.041476011E0,8.174480438E0,1.474576950E0
4.455661062E0,1.047458172E0,8.102695465E0,1.446461320E0
4.458014291E0,1.020538807E0,8.035098076E0,1.379462242E0
4.460367521E0,1.046261668E0,7.953742504E0,1.327418327E0
4.462720750E0,1.014556766E0,7.905287743E0,1.274776220E0
4.465074031E0,9.780662656E-1,7.880163193E0,1.202393413E0
4.467427260E0,9.499505758E-1,7.856235027E0,1.173081279E0
4.469780489E0,9.038887620E-1,7.855038643E0,1.105484009E0
4.472133719E0,8.709874153E-1,7.878368378E0,1.076171994E0
4.474486948E0,8.380861282E-1,7.911269665E0,1.031904817E0
4.476840177E0,7.764709592E-1,7.939385414E0,9.978070259E-1
4.479193458E0,7.489534616E-1,7.953144073E0,9.445667267E-1
4.481546687E0,7.112665176E-1,7.971688747E0,9.242277741E-1
4.483899916E0,6.544370055E-1,8.018946648E0,8.799605370E-1
4.486253146E0,6.215356588E-1,8.027919769E0,8.793623447E-1
4.488606375E0,5.826523304E-1,8.089534760E0,9.026923180E-1
4.490959656E0,5.533402562E-1,8.142177582E0,8.967102766E-1
4.493312885E0,4.959124923E-1,8.194221497E0,9.098708034E-1
4.495666114E0,4.576273263E-1,8.251050949E0,9.140582681E-1
4.498019344E0,4.145565331E-1,8.293522835E0,8.985049129E-1
4.500372573E0,3.667000830E-1,8.364709854E0,8.925228715E-1
4.502725802E0,3.326023519E-1,8.422137260E0,8.967102766E-1
4.505079083E0,2.901297510E-1,8.497511864E0,8.566305041E-1
4.507432312E0,2.560320199E-1,8.550153732E0,8.560323119E-1
4.509785541E0,1.986042857E-1,8.626125336E0,8.452646136E-1
4.512138771E0,1.603191197E-1,8.707481384E0,8.344969153E-1
4.514492000E0,1.310070455E-1,8.788239479E0,8.141579032E-1
4.516845229E0,6.939185411E-2,8.840283394E0,8.033902049E-1
4.519198510E0,6.400800496E-2,8.911469460E0,8.027920127E-1
4.521551739E0,3.469592705E-2,8.968897820E0,7.968099117E-1
4.523904969E0,1.196411322E-3,9.030512810E0,8.009973764E-1
4.526258198E0,-8.374879137E-3,9.059226990E0,7.908278704E-1
4.528611427E0,-1.435693540E-2,9.140582085E0,8.093722463E-1
4.530964656E0,-1.974078640E-2,9.183652878E0,8.237292171E-1
4.533317937E0,-1.615155302E-2,9.250652313E0,8.422735929E-1
4.535671166E0,-2.213360928E-2,9.317651749E0,8.656035662E-1
4.538024396E0,-8.374879137E-3,9.394221306E0,8.650053740E-1
4.540377625E0,-2.333002165E-2,9.432506561E0,8.841479421E-1
4.542730854E0,-4.366901144E-2,9.479764938E0,8.931210637E-1
4.545084135E0,-1.974078640E-2,9.503693581E0,8.835497499E-1
4.547437364E0,3.589233849E-3,9.537791252E0,8.883354068E-1
4.549790594E0,1.316052489E-2,9.552147865E0,8.883354068E-1
4.552143823E0,4.606183618E-2,9.580862045E0,8.937192559E-1
4.554497052E0,4.067798331E-2,9.590433121E0,9.026923180E-1
4.556850333E0,5.024927482E-2,9.619745255E0,9.122636318E-1
4.559203562E0,5.982056633E-2,9.643074989E0,8.835497499E-1
4.561556791E0,7.417750359E-2,9.652647018E0,8.548358679E-1
4.563910021E0,5.024927482E-2,9.671789169E0,8.446664214E-1
4.566263250E0,1.256231871E-2,9.695118904E0,8.392825127E-1
4.568616479E0,2.991028363E-3,9.752547264E0,8.051848412E-1
4.570969760E0,-3.529413417E-2,9.771689415E0,7.902296782E-1
4.573322989E0,-4.546362907E-2,9.795618057E0,8.189435601E-1
4.575676219E0,-8.793623000E-2,9.771091461E0,8.039883971E-1
4.578029448E0,-1.118644550E-1,9.741779327E0,8.327022791E-1
4.580382677E0,-1.256231815E-1,9.703494072E0,8.231309652E-1
4.582735906E0,-1.531406492E-1,9.650253296E0,8.231309652E-1
4.585089187E0,-1.621137410E-1,9.588040352E0,8.183453679E-1
4.587442416E0,-1.800599098E-1,9.521040916E0,8.141579032E-1
4.589795646E0,-1.794617027E-1,9.430712700E0,8.291130662E-1
4.592148875E0,-1.842473447E-1,9.373284340E0,8.721838593E-1
4.594502104E0,-2.123630047E-1,9.287142754E0,9.014959335E-1
4.596855333E0,-2.213360965E-1,9.210572243E0,9.260223508E-1
4.599208614E0,-2.165504545E-1,9.139386177E0,9.696913958E-1
4.601561844E0,-2.165504545E-1,9.063413620E0,1.022931695E0
4.603915073E0,-2.117647976E-1,8.991629601E0,1.066600680E0
4.606268302E0,-1.980060786E-1,8.921041489E0,1.143769264E0
4.608621531E0,-2.075773627E-1,8.849256516E0,1.192223907E0
4.610974812E0,-2.033899277E-1,8.782855988E0,1.274178028E0
4.613328041E0,-1.938186288E-1,8.706883430E0,1.313659668E0
4.615681271E0,-1.806581169E-1,8.664410591E0,1.400399446E0
4.618034500E0,-2.195414752E-1,8.645268440E0,1.476371527E0
4.620387729E0,-2.494517565E-1,8.616554260E0,1.572682738E0
4.622740958E0,-2.697907388E-1,8.616554260E0,1.663609982E0
4.625094239E0,-2.943171859E-1,8.583653450E0,1.744965911E0
4.627447469E0,-3.523431420E-1,8.531010628E0,1.845464468E0
4.629800698E0,-4.007977843E-1,8.440681458E0,1.969891191E0
4.632153927E0,-4.582255483E-1,8.373682976E0,2.065604210E0
4.634507156E0,-5.252245665E-1,8.292326927E0,2.160718918E0
4.636860385E0,-6.155536175E-1,8.201399803E0,2.242074728E0
4.639213666E0,-6.825526357E-1,8.096115112E0,2.323430777E0
4.641566896E0,-7.728816867E-1,7.990232944E0,2.408974171E0
4.643920125E0,-8.721838593E-1,7.899305820E0,2.484946251E0
4.646273354E0,-9.816554785E-1,7.793423176E0,2.584846735E0
4.648626583E0,-1.071984529E0,7.716853142E0,2.656631231E0
4.650979812E0,-1.158724308E0,7.625925541E0,2.756531715E0
4.653333094E0,-1.282552958E0,7.557730198E0,2.831905603E0
4.655686323E0,-1.387837172E0,7.494918823E0,2.936591625E0
4.658039552E0,-1.488335729E0,7.427919865E0,3.060420275E0
4.660392781E0,-1.612164259E0,7.365108013E0,3.145365477E0
4.662746010E0,-1.693520188E0,7.278966427E0,3.250051260E0
4.665099291E0,-1.808375716E0,7.235297680E0,3.339782238E0
4.667452521E0,-1.932802439E0,7.167700291E0,3.443870068E0
4.669805750E0,-2.014158487E0,7.124629498E0,3.534198999E0
4.672158979E0,-2.143370867E0,7.080960274E0,3.633501291E0
4.674512208E0,-2.248056889E0,7.032505512E0,3.718446493E0
4.676865489E0,-2.359921217E0,7.032505512E0,3.832703590E0
4.679218719E0,-2.470589399E0,7.060621262E0,3.917050600E0
4.681571948E0,-2.576471806E0,7.103094101E0,4.001397610E0
4.683925177E0,-2.667997360E0,7.140780926E0,4.086342812E0
4.686278406E0,-2.774477959E0,7.211967468E0,4.180261135E0
4.688631635E0,-2.857628345E0,7.311867714E0,4.264608383E0
4.690984916E0,-2.944966555E0,7.416553974E0,4.324428558E0
4.693338146E0,-3.037090063E0,7.502695560E0,4.427918434E0
4.695691375E0,-3.110669374E0,7.631907940E0,4.493122578E0
4.698044604E0,-3.180061340E0,7.785048485E0,4.582255363E0
4.700397833E0,-3.259622574E0,7.956733704E0,4.699503899E0
4.702751062E0,-3.310470104E0,8.124231339E0,4.808377266E0
4.705104344E0,-3.375674486E0,8.310871124E0,4.907081127E0
4.707457573E0,-3.465405464E0,8.535198212E0,5.019543648E0
4.709810802E0,-3.506681681E0,8.717651367E0,5.127819061E0
4.712164031E0,-3.547957659E0,8.922835350E0,5.187639713E0
4.714517260E0,-3.598805189E0,9.128618240E0,5.281557560E0
4.716870541E0,-3.640081406E0,9.296115875E0,5.375475883E0
4.719223771E0,-3.662214994E0,9.487542152E0,5.436492920E0
4.721577000E0,-3.701696634E0,9.620942116E0,5.477769375E0
4.723930229E0,-3.737588882E0,9.784252167E0,5.533402443E0
4.726283458E0,-3.763311863E0,9.889535904E0,5.585446358E0
4.728636739E0,-3.793820381E0,1.001336479E1,5.627320766E0
4.730989969E0,-3.833301783E0,1.013779163E1,5.649454117E0
4.733343198E0,-3.863212109E0,1.024247742E1,5.667400360E0
4.735696427E0,-3.888336897E0,1.032861900E1,5.719444275E0
4.738049656E0,-3.923032761E0,1.039561844E1,5.756533146E0
4.740402885E0,-3.938585997E0,1.047218800E1,5.808577061E0
4.742756166E0,-3.992424488E0,1.053440189E1,5.874379635E0
4.745109396E0,-4.002593994E0,1.058225822E1,5.898307800E0
4.747462625E0,-4.041477680E0,1.059123135E1,5.926423550E0
4.749815854E0,-4.055834293E0,1.057687473E1,5.955137253E0
4.752169083E0,-4.074976921E0,1.053918743E1,5.998806477E0
4.754522364E0,-4.098905087E0,1.048176003E1,6.037091732E0
4.756875594E0,-4.112663746E0,1.039083195E1,6.071189404E0
4.759228823E0,-4.131208420E0,1.030947590E1,6.099903107E0
4.761582052E0,-4.149154663E0,1.018983555E1,6.110072613E0
4.763935281E0,-4.171886444E0,1.008933640E1,6.129813194E0
4.766288510E0,-4.204787731E0,1.001755238E1,6.139384747E0
4.768641791E0,-4.226323128E0,9.878767967E0,6.125626087E0
4.770995021E0,-4.253840446E0,9.768698692E0,6.121438503E0
4.773348250E0,-4.314259052E0,9.681360245E0,6.107081413E0
4.775701479E0,-4.365106583E0,9.608977318E0,6.077769279E0
4.778054708E0,-4.410570145E0,9.512666702E0,6.025127411E0
4.780407937E0,-4.452444553E0,9.473783493E0,5.991029739E0
4.782761219E0,-4.522434711E0,9.415159225E0,5.927619934E0
4.785114448E0,-4.593023300E0,9.404989243E0,5.888138294E0
4.787467677E0,-4.648057938E0,9.351150513E0,5.825924873E0
4.789820906E0,-4.680361271E0,9.345767021E0,5.767899036E0
4.792174135E0,-4.750350952E0,9.311071396E0,5.699703693E0
4.794527416E0,-4.758127689E0,9.310472488E0,5.623133183E0
4.796880646E0,-4.795216560E0,9.309874535E0,5.550750256E0
4.799233875E0,-4.831707001E0,9.304491043E0,5.473581791E0
4.801587104E0,-4.867599487E0,9.269794464E0,5.386841774E0
4.803940333E0,-4.875974178E0,9.264410973E0,5.300102234E0
4.806293614E0,-4.850849628E0,9.245268822E0,5.219344616E0
4.808646844E0,-4.844867706E0,9.197412491E0,5.162514687E0
4.811000073E0,-4.819743156E0,9.187242508E0,5.095515728E0
4.813353302E0,-4.799404144E0,9.139386177E0,5.043471813E0
4.815706531E0,-4.755136967E0,9.115457535E0,4.962714195E0
4.818059812E0,-4.701298237E0,9.072386742E0,4.892126083E0
4.820413041E0,-4.667200565E0,9.024530411E0,4.829912663E0
4.822766271E0,-4.618745804E0,8.986844063E0,4.792225361E0
4.825119500E0,-4.560719967E0,8.967700958E0,4.731208801E0
4.827472729E0,-4.501497746E0,8.915059090E0,4.651049137E0
4.829825958E0,-4.424329281E0,8.882157326E0,4.599603176E0
4.832179239E0,-4.361517429E0,8.863613129E0,4.537988186E0
4.834532469E0,-4.332205296E0,8.872586250E0,4.476373196E0
4.836885698E0,-4.269991875E0,8.887541771E0,4.424329281E0
4.839238927E0,-4.222135544E0,8.906683922E0,4.400999069E0
4.841592156E0,-4.161118507E0,8.983852386E0,4.357928276E0
4.843945385E0,-4.127619267E0,9.031708717E0,4.314857483E0
4.846298666E0,-4.085146427E0,9.093922615E0,4.290929317E0
4.848651896E0,-4.023531437E0,9.151947975E0,4.262813568E0
4.851005125E0,-3.995415688E0,9.238089561E0,4.234099865E0
4.853358354E0,-3.943969965E0,9.281160355E0,4.248456478E0
4.855711583E0,-3.902095556E0,9.343972206E0,4.244269371E0
4.858064864E0,-3.883551121E0,9.406186104E0,4.238885403E0
4.860418094E0,-3.818346739E0,9.464211464E0,4.244269371E0
4.862771323E0,-3.795016766E0,9.521639824E0,4.239483356E0
4.865124552E0,-3.762713671E0,9.584450722E0,4.268197536E0
4.867477781E0,-3.735196114E0,9.661021233E0,4.263411522E0
4.869831062E0,-3.711866140E0,9.685547829E0,4.272983074E0
4.872184291E0,-3.722035646E0,9.751948357E0,4.281956196E0
4.874537521E0,-3.699902058E0,9.786644936E0,4.334598064E0
4.876890750E0,-3.690928936E0,9.820143700E0,4.344169617E0
4.879243979E0,-3.681955814E0,9.849455833E0,4.363312244E0
4.881597208E0,-3.667598963E0,9.887143135E0,4.329812527E0
4.883950489E0,-3.696312666E0,9.882357597E0,4.362713814E0
4.886303719E0,-3.682554007E0,9.920642853E0,4.348356724E0
4.888656948E0,-3.672982693E0,9.934999466E0,4.334000111E0
4.891010177E0,-3.673580885E0,9.978070259E0,4.353142738E0
4.893363406E0,-3.701696634E0,9.982855797E0,4.342973232E0
4.895716687E0,-3.726222992E0,1.003489971E1,4.342374802E0
4.898069916E0,-3.759722471E0,1.006839943E1,4.351347923E0
4.900423146E0,-3.778865099E0,1.008694363E1,4.341178417E0
4.902776375E0,-3.817150354E0,1.012941647E1,4.330410957E0
4.905129604E0,-3.856033802E0,1.019162941E1,4.368097782E0
4.907482833E0,-3.912265062E0,1.016710377E1,4.357928276E0
4.909836114E0,-3.954737663E0,1.017607689E1,4.328616142E0
4.912189344E0,-4.001996040E0,1.018026352E1,4.327419758E0
4.914542573E0,-4.063013077E0,1.017966557E1,4.288536549E0
4.916895802E0,-4.101297855E0,1.018863869E1,4.283152580E0
4.919249031E0,-4.152743816E0,1.020718288E1,4.258028030E0
4.921602312E0,-4.167100430E0,1.021675491E1,4.262813568E0
4.923955541E0,-4.223930359E0,1.021137047E1,4.256831646E0
4.926308771E0,-4.256831646E0,1.021555805E1,4.217947960E0
4.928662000E0,-4.261617184E0,1.023948669E1,4.208376884E0
4.931015229E0,-4.299304008E0,1.024845982E1,4.193421841E0
