"Time (s)","Gyroscope x (rad/s)","Gyroscope y (rad/s)","Gyroscope z (rad/s)"
1.457434400E-2,-1.038440317E-2,8.215895295E-2,1.572931744E-2
1.692757300E-2,5.589252338E-2,-7.314895838E-2,5.024218559E-2
1.928080200E-2,6.230641901E-2,-9.712471068E-2,4.550812021E-2
2.163403100E-2,6.383354217E-2,-1.175880954E-1,4.321744293E-2
2.398726000E-2,6.520794332E-2,-1.356080920E-1,3.970507160E-2
2.634048900E-2,6.658235192E-2,-1.548497826E-1,3.970507160E-2
2.869371900E-2,6.413896382E-2,-1.667613089E-1,3.970507160E-2
3.104694800E-2,6.306997687E-2,-1.835595965E-1,3.619270027E-2
3.340017700E-2,6.200099736E-2,-1.931804419E-1,3.497100621E-2
3.575345800E-2,5.833591148E-2,-2.040229887E-1,3.497100621E-2
3.810668700E-2,5.467082933E-2,-2.136438340E-1,3.237490356E-2
4.045991600E-2,5.115845799E-2,-2.185306102E-1,2.870982140E-2
4.281314600E-2,4.504998401E-2,-2.221956849E-1,2.504473738E-2
4.516637500E-2,4.001049697E-2,-2.244863659E-1,2.367033064E-2
4.751960400E-2,3.145863488E-2,-2.270824611E-1,1.985253580E-2
4.987283300E-2,2.535016090E-2,-2.270824611E-1,1.618745178E-2
5.222606200E-2,1.786728203E-2,-2.234173864E-1,1.725643501E-2
5.457929100E-2,1.038440317E-2,-2.223484069E-1,1.832541823E-2
5.693252100E-2,4.123218823E-3,-2.199050188E-1,1.832541823E-2
5.928580200E-2,-1.985253533E-3,-2.176143378E-1,1.817270555E-2
6.163903100E-2,-4.581354558E-3,-2.139492482E-1,1.939439960E-2
6.399226000E-2,-1.084253844E-2,-2.139492482E-1,2.046338283E-2
6.634548900E-2,-1.588202827E-2,-2.116585821E-1,2.290677279E-2
6.869871900E-2,-1.954711229E-2,-2.055501044E-1,2.397575416E-2
7.105194800E-2,-2.336490713E-2,-2.008160353E-1,2.397575416E-2
7.340517700E-2,-2.962609194E-2,-1.983726472E-1,2.748812735E-2
7.575840600E-2,-3.206948191E-2,-1.948602796E-1,2.626643144E-2
7.811163500E-2,-3.344388679E-2,-1.924168915E-1,2.626643144E-2
8.046491600E-2,-3.710897267E-2,-1.901262105E-1,2.855710872E-2
8.281814600E-2,-3.833066672E-2,-1.876828223E-1,2.611372061E-2
8.517137500E-2,-4.092676565E-2,-1.805053651E-1,2.855710872E-2
8.752460400E-2,-4.474456236E-2,-1.780619770E-1,2.962609194E-2
8.987783300E-2,-4.718795046E-2,-1.733279079E-1,2.962609194E-2
9.223106200E-2,-4.978405312E-2,-1.685938388E-1,2.947338112E-2
9.458429100E-2,-5.100574717E-2,-1.612636745E-1,2.947338112E-2
9.693752100E-2,-5.482354015E-2,-1.565296054E-1,2.947338112E-2
9.929075000E-2,-5.848862603E-2,-1.493521482E-1,3.054236248E-2
1.016439790E-1,-6.108472496E-2,-1.397313178E-1,2.932066843E-2
1.039972600E-1,-6.490252167E-2,-1.302631795E-1,3.038965166E-2
1.063504890E-1,-6.749862432E-2,-1.229330078E-1,3.161134571E-2
1.087037190E-1,-7.009471953E-2,-1.145338640E-1,3.390202299E-2
1.110569480E-1,-7.635590434E-2,-1.062874198E-1,3.497100621E-2
1.134101770E-1,-8.261708915E-2,-9.788827598E-2,3.497100621E-2
1.157634060E-1,-8.383878320E-2,-9.193251282E-2,3.359659761E-2
1.181166350E-1,-8.765657991E-2,-8.475505561E-2,3.481829539E-2
1.204698640E-1,-9.009996802E-2,-7.864658535E-2,3.344388679E-2
1.228230940E-1,-9.376505762E-2,-7.391251624E-2,3.100049868E-2
1.251763230E-1,-9.636115283E-2,-6.551336497E-2,3.100049868E-2
1.275295520E-1,-1.014006436E-1,-6.200099736E-2,3.084778599E-2
1.298828330E-1,-1.062874198E-1,-5.604523420E-2,2.947338112E-2
1.322360620E-1,-1.076618284E-1,-5.008947477E-2,2.825168520E-2
1.345892910E-1,-1.101052165E-1,-4.764608666E-2,2.580829710E-2
1.369425210E-1,-1.137702987E-1,-4.291202128E-2,2.565558441E-2
1.392957500E-1,-1.175880954E-1,-4.291202128E-2,2.565558441E-2
1.416489790E-1,-1.250709742E-1,-3.924693540E-2,2.794626169E-2
1.440022080E-1,-1.287360638E-1,-4.169032723E-2,2.550287358E-2
1.463554370E-1,-1.299577504E-1,-3.939964995E-2,2.672456764E-2
1.487086660E-1,-1.349972486E-1,-4.062134400E-2,2.779355086E-2
1.510619480E-1,-1.362189353E-1,-4.062134400E-2,2.901524492E-2
1.534151770E-1,-1.374406368E-1,-4.062134400E-2,2.779355086E-2
1.557684060E-1,-1.411057115E-1,-4.062134400E-2,2.657185495E-2
1.581216350E-1,-1.423274130E-1,-4.184303805E-2,2.535016090E-2
1.604748640E-1,-1.435490996E-1,-4.428642616E-2,2.397575416E-2
1.628280940E-1,-1.459924877E-1,-4.306473210E-2,2.519745007E-2
1.651813230E-1,-1.472141892E-1,-4.306473210E-2,2.397575416E-2
1.675345520E-1,-1.447708011E-1,-4.535540938E-2,2.397575416E-2
1.698877810E-1,-1.435490996E-1,-4.779879749E-2,2.535016090E-2
1.722410620E-1,-1.433963925E-1,-4.902049154E-2,2.046338283E-2
1.745942910E-1,-1.397313178E-1,-5.024218559E-2,1.924168877E-2
1.769475210E-1,-1.372879148E-1,-5.024218559E-2,1.924168877E-2
1.793007500E-1,-1.322484314E-1,-5.146388337E-2,1.572931744E-2
1.816539790E-1,-1.270562261E-1,-5.375456065E-2,1.084253844E-2
1.840072080E-1,-1.233911440E-1,-5.497625470E-2,7.177455351E-3
1.863604370E-1,-1.171299592E-1,-5.864133686E-2,4.886778072E-3
1.887136660E-1,-1.096470803E-1,-5.864133686E-2,2.596100792E-3
1.910668960E-1,-1.058292910E-1,-6.215370819E-2,1.527118147E-4
1.934201770E-1,-9.834641218E-2,-6.810946763E-2,-9.162708884E-4
1.957734060E-1,-9.452861547E-2,-7.177454978E-2,-2.137965523E-3
1.981266350E-1,-8.964183182E-2,-7.177454978E-2,-1.985253533E-3
2.004798640E-1,-8.460234851E-2,-7.528692484E-2,-7.635590737E-4
2.028330940E-1,-8.078455180E-2,-7.895200700E-2,-1.832541777E-3
2.051863230E-1,-7.589777559E-2,-8.368607610E-2,-1.832541777E-3
2.075395520E-1,-7.330167294E-2,-8.964183182E-2,-4.581354442E-4
2.098927810E-1,-6.841489673E-2,-8.842013776E-2,-2.901524538E-3
2.122460100E-1,-6.459710002E-2,-9.437590092E-2,-2.748812549E-3
2.145992390E-1,-6.215370819E-2,-9.804098308E-2,-1.527118147E-3
2.169525210E-1,-5.711421743E-2,-9.926267713E-2,-1.374406274E-3
2.193057500E-1,-5.711421743E-2,-1.003316641E-1,-2.596100792E-3
2.216589790E-1,-5.467082933E-2,-1.003316641E-1,-2.596100792E-3
2.240122080E-1,-4.963133857E-2,-9.910997003E-2,-2.596100792E-3
2.263654370E-1,-4.718795046E-2,-9.559759498E-2,-1.374406274E-3
2.287186660E-1,-4.230117425E-2,-9.437590092E-2,0.000000000E0
2.310718960E-1,-3.985778242E-2,-9.437590092E-2,-2.443389036E-3
2.334251250E-1,-3.863608837E-2,-9.071081877E-2,-2.443389036E-3
2.357783540E-1,-3.741439432E-2,-8.948912472E-2,-3.665083554E-3
2.381316350E-1,-3.481829539E-2,-8.719844371E-2,-6.108472589E-3
2.404848640E-1,-3.359659761E-2,-8.475505561E-2,-8.551862091E-3
2.428380940E-1,-3.237490356E-2,-8.002099395E-2,-8.551862091E-3
2.451913230E-1,-2.870982140E-2,-7.757759839E-2,-9.620844387E-3
2.475445520E-1,-2.993151546E-2,-7.513421029E-2,-9.773556143E-3
2.498977810E-1,-2.626643144E-2,-7.391251624E-2,-9.620844387E-3
2.522510100E-1,-2.367033064E-2,-7.040014863E-2,-9.620844387E-3
2.546042390E-1,-2.000524849E-2,-7.391251624E-2,-1.084253844E-2
2.569574690E-1,-1.878355257E-2,-7.635590434E-2,-8.399149403E-3
2.593106980E-1,-1.634016447E-2,-7.513421029E-2,-8.246437646E-3
2.616639790E-1,-1.252236869E-2,-7.513421029E-2,-7.024743594E-3
2.640172080E-1,-8.857285604E-3,-7.864658535E-2,-4.581354558E-3
2.663704370E-1,-6.413896102E-3,-7.864658535E-2,-3.206948051E-3
2.687236660E-1,-3.970507067E-3,-8.093725890E-2,-1.985253533E-3
2.710768960E-1,-2.748812549E-3,-8.093725890E-2,-3.206948051E-3
2.734301250E-1,-1.527118147E-4,-8.215895295E-2,-1.985253533E-3
2.757833540E-1,3.512371797E-3,-8.460234851E-2,-6.108472589E-4
2.781365830E-1,7.177455351E-3,-8.338065445E-2,1.832541777E-3
2.804898120E-1,1.084253844E-2,-8.093725890E-2,4.428642802E-3
2.828430410E-1,1.450762246E-2,-7.971556485E-2,4.428642802E-3
2.851963230E-1,1.832541823E-2,-7.849387079E-2,4.428642802E-3
2.875495520E-1,2.076880634E-2,-8.078455180E-2,3.206948051E-3
2.899027810E-1,2.443389036E-2,-8.322793990E-2,4.581354558E-3
2.922560100E-1,2.825168520E-2,-8.551861346E-2,7.024743594E-3
2.946092390E-1,3.191677108E-2,-8.674030751E-2,7.177455351E-3
2.969624690E-1,3.436015919E-2,-8.674030751E-2,5.955760833E-3
2.993156980E-1,3.573456407E-2,-9.040539712E-2,4.734066315E-3
3.016689270E-1,3.817795217E-2,-9.269607067E-2,5.955760833E-3
3.040221560E-1,3.817795217E-2,-9.513945878E-2,7.330167107E-3
3.063754370E-1,4.199574888E-2,-9.880454093E-2,6.108472589E-3
3.087286660E-1,4.199574888E-2,-9.987352788E-2,4.886778072E-3
3.110818960E-1,4.566083103E-2,-1.010952219E-1,6.108472589E-3
3.134351250E-1,4.688252881E-2,-1.035386100E-1,6.261184346E-3
3.157883540E-1,4.947862774E-2,-1.047603041E-1,5.039489828E-3
3.181415830E-1,5.192201585E-2,-1.059819981E-1,3.817795310E-3
3.204948120E-1,5.451811850E-2,-1.082726792E-1,2.596100792E-3
3.228480410E-1,5.818320066E-2,-1.070509851E-1,3.970507067E-3
3.252012710E-1,6.062658876E-2,-1.070509851E-1,1.527118147E-3
3.275545000E-1,6.444438547E-2,-1.070509851E-1,-9.162708884E-4
3.299077810E-1,7.070557028E-2,-1.035386100E-1,-3.206948051E-3
3.322610100E-1,7.437065244E-2,-1.023169160E-1,-4.428642802E-3
3.346142390E-1,8.307522535E-2,-9.987352788E-2,-5.497625098E-3
3.369674690E-1,8.811471611E-2,-1.010952219E-1,-6.719320081E-3
3.393206980E-1,9.177979827E-2,-9.865183383E-2,-7.941014133E-3
3.416739270E-1,9.788827598E-2,-9.254335612E-2,-6.566607859E-3
3.440271560E-1,1.015533581E-1,-8.780929446E-2,-7.788302377E-3
3.463803850E-1,1.064401343E-1,-8.170082420E-2,-5.344913341E-3
3.487336140E-1,1.088835225E-1,-7.207997888E-2,-1.679830020E-3
3.510868960E-1,1.101052165E-1,-6.612421572E-2,-1.679830020E-3
3.534401250E-1,1.136175916E-1,-5.650337040E-2,-4.581354442E-4
3.557933540E-1,1.160609797E-1,-5.176930502E-2,-3.054236295E-4
3.581465830E-1,1.197260618E-1,-4.321744293E-2,-3.054236295E-4
3.604998120E-1,1.233911440E-1,-4.199574888E-2,2.137965523E-3
3.628530410E-1,1.258345395E-1,-3.848337755E-2,5.803049076E-3
3.652062710E-1,1.294996142E-1,-3.726168349E-2,4.734066315E-3
3.675595000E-1,1.333174109E-1,-3.359659761E-2,3.512371797E-3
3.699127290E-1,1.369825006E-1,-3.115320951E-2,4.734066315E-3
3.722660100E-1,1.382041872E-1,-2.870982140E-2,7.177455351E-3
3.746192390E-1,1.418692768E-1,-2.993151546E-2,1.221694518E-2
3.769724690E-1,1.441599578E-1,-2.993151546E-2,1.710372418E-2
3.793256980E-1,1.440072358E-1,-2.626643144E-2,2.443389036E-2
3.816789270E-1,1.438545287E-1,-2.382304333E-2,3.176405653E-2
3.840321560E-1,1.426328421E-1,-2.015795931E-2,3.665083647E-2
3.863853850E-1,1.424801201E-1,-1.649287529E-2,3.909422457E-2
3.887386140E-1,1.398840249E-1,-1.298050396E-2,4.260659590E-2
3.910918440E-1,1.411057115E-1,-1.175880991E-2,4.764608666E-2
3.934451250E-1,1.423274130E-1,-9.315420873E-3,4.886778072E-2
3.957983540E-1,1.433963925E-1,-1.160609815E-2,5.375456065E-2
3.981515830E-1,1.458397806E-1,-1.038440317E-2,5.741964281E-2
4.005048120E-1,1.470614821E-1,-1.160609815E-2,5.986303091E-2
4.028580410E-1,1.482831687E-1,-1.267508045E-2,6.490252167E-2
4.052112710E-1,1.507265568E-1,-1.267508045E-2,6.978929788E-2
4.075645000E-1,1.543916464E-1,-1.389677543E-2,7.345438004E-2
4.099177290E-1,1.566823274E-1,-1.389677543E-2,7.605048269E-2
4.122709580E-1,1.629435122E-1,-1.618745178E-2,7.849387079E-2
4.146241870E-1,1.666085869E-1,-1.863084175E-2,8.108997345E-2
4.169774690E-1,1.728697717E-1,-2.214321308E-2,8.353336155E-2
4.193306980E-1,1.765348613E-1,-2.809897438E-2,8.857285231E-2
4.216839270E-1,1.826433241E-1,-3.283303976E-2,9.361234307E-2
4.240371560E-1,1.899735034E-1,-3.985778242E-2,9.987352788E-2
4.263903850E-1,1.936385781E-1,-4.459185153E-2,1.084253863E-1
4.287436140E-1,1.971509457E-1,-4.581354558E-2,1.195733473E-1
4.310968440E-1,2.031067163E-1,-4.321744293E-2,1.330119967E-1
4.334500730E-1,2.078407854E-1,-3.833066672E-2,1.478250325E-1
4.358033020E-1,2.125748396E-1,-2.748812735E-2,1.588202864E-1
4.381565310E-1,2.159345001E-1,-1.175880991E-2,1.759240031E-1
4.405098120E-1,2.128802687E-1,1.603474095E-2,1.954711229E-1
4.428630410E-1,1.907370538E-1,8.918370306E-2,2.254026383E-1
4.452095520E-1,1.485885978E-1,1.780619770E-1,2.649549842E-1
4.475560620E-1,1.090362370E-1,2.464768738E-1,3.020639718E-1
4.499090830E-1,7.956285775E-2,3.005368412E-1,3.356605768E-1
4.523091350E-1,5.986303091E-2,3.631486893E-1,3.694098890E-1
4.547091870E-1,4.245388508E-2,4.616478086E-1,4.092676640E-1
4.571095520E-1,3.023693897E-2,6.059604883E-1,4.844018817E-1
4.595098640E-1,3.176405653E-2,6.697940230E-1,5.147915483E-1
4.619101250E-1,4.443913698E-2,7.383615971E-1,5.404471159E-1
4.643103850E-1,5.848862603E-2,8.034168482E-1,5.661026835E-1
4.667106460E-1,7.131642103E-2,8.648070097E-1,5.856497884E-1
4.691109060E-1,8.322793990E-2,9.127585292E-1,5.978667736E-1
4.715111660E-1,9.147437662E-2,9.512419105E-1,6.051968932E-1
4.739114270E-1,9.498675168E-2,9.776610136E-1,6.087092757E-1
4.763116870E-1,9.605573118E-2,9.969027042E-1,6.074876189E-1
4.787119480E-1,8.979454637E-2,1.007592559E0,6.061131954E-1
4.811122080E-1,8.246438205E-2,1.013548255E0,6.047387719E-1
4.835125210E-1,7.360709459E-2,1.015991688E0,6.058077812E-1
4.859127810E-1,6.490252167E-2,1.013548255E0,6.131379604E-1
4.883130410E-1,5.482354015E-2,1.007592559E0,6.215370893E-1
4.907133020E-1,4.474456236E-2,1.004080176E0,6.348230243E-1
4.931135620E-1,3.710897267E-2,9.981244206E-1,6.531484127E-1
4.955138230E-1,3.054236248E-2,9.958337545E-1,6.751389503E-1
4.979140830E-1,2.397575416E-2,9.900307059E-1,6.983511448E-1
5.003143440E-1,2.244863659E-2,9.830059409E-1,7.203416228E-1
5.027146560E-1,2.199050039E-2,9.772028923E-1,7.461498976E-1
5.051148640E-1,2.046338283E-2,9.736905098E-1,7.718055248E-1
5.075151770E-1,2.382304333E-2,9.691091776E-1,7.963921428E-1
5.099154370E-1,2.580829710E-2,9.717052579E-1,8.244910836E-1
5.123156980E-1,3.161134571E-2,9.706363082E-1,8.441908956E-1
5.147159580E-1,3.741439432E-2,9.732323885E-1,8.663341403E-1
5.171162190E-1,4.337015375E-2,9.758284688E-1,8.848122358E-1
5.195164790E-1,4.810422286E-2,9.782719016E-1,9.006943107E-1
5.219167390E-1,5.390727147E-2,9.808679819E-1,9.167290330E-1
5.243170000E-1,5.864133686E-2,9.845330715E-1,9.327637553E-1
5.267173120E-1,6.459710002E-2,9.859074950E-1,9.474241138E-1
5.291175730E-1,6.673506647E-2,9.883508682E-1,9.634588361E-1
5.315178330E-1,6.765133142E-2,9.897252917E-1,9.805625677E-1
5.339180940E-1,6.872031838E-2,9.886562824E-1,1.000109673E0
5.363183540E-1,6.826218218E-2,9.935430884E-1,1.019809484E0
5.387186140E-1,6.536065787E-2,9.996515512E-1,1.044243336E0
5.411188750E-1,6.490252167E-2,1.006981730E0,1.065012217E0
5.435191350E-1,6.337540597E-2,1.014311910E0,1.088224411E0
5.459193960E-1,6.169557199E-2,1.019351363E0,1.107771516E0
5.483197080E-1,6.001574174E-2,1.028972149E0,1.127318621E0
5.507199690E-1,5.971032009E-2,1.039967418E0,1.145491362E0
5.531202290E-1,5.803048983E-2,1.053253412E0,1.162595034E0
5.555204890E-1,5.650337040E-2,1.065317631E0,1.178477049E0
5.579207500E-1,5.619794875E-2,1.077381849E0,1.193137407E0
5.603210100E-1,5.696150661E-2,1.093111157E0,1.209019423E0
5.627212710E-1,5.909947306E-2,1.106397152E0,1.224901438E0
5.651215310E-1,6.139015034E-2,1.119683027E0,1.237271070E0
5.675217910E-1,5.971032009E-2,1.134190679E0,1.255596519E0
5.699221040E-1,5.680879578E-2,1.147476554E0,1.273769259E0
5.722909580E-1,5.894676223E-2,1.158471823E0,1.293469071E0
5.746441870E-1,5.589252338E-2,1.172979474E0,1.315306902E0
5.769974160E-1,5.421269313E-2,1.187487125E0,1.336075664E0
5.793506460E-1,4.764608666E-2,1.198482275E0,1.360509515E0
5.817038750E-1,4.092676565E-2,1.211768270E0,1.382347345E0
5.840571040E-1,3.420744836E-2,1.226275921E0,1.404185176E0
5.864103330E-1,2.519745007E-2,1.240783453E0,1.424801230E0
5.887635620E-1,1.481304597E-2,1.257581830E0,1.446639061E0
5.911168440E-1,3.206948051E-3,1.273311138E0,1.467255116E0
5.934700730E-1,-7.177455351E-3,1.289040446E0,1.482984424E0
5.958233020E-1,-1.740914769E-2,1.304617047E0,1.498713732E0
5.981765310E-1,-2.886253223E-2,1.317902923E0,1.513221383E0
6.005297600E-1,-3.787253052E-2,1.327523828E0,1.528950691E0
6.028829890E-1,-4.947862774E-2,1.337144613E0,1.544679999E0
6.052362190E-1,-5.833591148E-2,1.344474792E0,1.559187651E0
6.075894480E-1,-6.612421572E-2,1.351652265E0,1.573695302E0
6.099426770E-1,-7.375980914E-2,1.358982444E0,1.585759521E0
6.122959060E-1,-8.276980370E-2,1.365090966E0,1.599198103E0
6.146491870E-1,-9.162709117E-2,1.373490095E0,1.608819008E0
6.170024160E-1,-9.926267713E-2,1.378224134E0,1.617218137E0
6.193556460E-1,-1.081199646E-1,1.385554314E0,1.626838923E0
6.217088750E-1,-1.195733473E-1,1.390288353E0,1.635238171E0
6.240621040E-1,-1.258345395E-1,1.391510010E0,1.646233320E0
6.264153330E-1,-1.360662282E-1,1.396396875E0,1.658297539E0
6.287685620E-1,-1.461452097E-1,1.401283622E0,1.670361876E0
6.311217910E-1,-1.575985998E-1,1.401283622E0,1.681204319E0
6.334750730E-1,-1.652341783E-1,1.406170368E0,1.695711970E0
6.358283020E-1,-1.742441803E-1,1.412126184E0,1.707928896E0
6.381815310E-1,-1.831014603E-1,1.418234587E0,1.721214890E0
6.405347600E-1,-1.870719790E-1,1.423121452E0,1.734500766E0
6.428879890E-1,-1.910424829E-1,1.429077148E0,1.745496035E0
6.452412190E-1,-1.937913001E-1,1.436407328E0,1.757712960E0
6.475944480E-1,-1.965401024E-1,1.441294074E0,1.768708229E0
6.499476770E-1,-1.966928244E-1,1.449693203E0,1.779703498E0
6.523009060E-1,-1.957765520E-1,1.454580069E0,1.791920424E0
6.546541350E-1,-1.971509457E-1,1.455801725E0,1.802915692E0
6.570073640E-1,-1.974563748E-1,1.463131905E0,1.815132618E0
6.593606460E-1,-1.963873953E-1,1.469240427E0,1.827349544E0
6.617138750E-1,-1.966928244E-1,1.477639556E0,1.839566469E0
6.640671040E-1,-1.982199401E-1,1.486191392E0,1.851783514E0
6.664203330E-1,-2.009687424E-1,1.497033954E0,1.865069389E0
6.687735620E-1,-2.049392611E-1,1.512763262E0,1.876064658E0
6.711267910E-1,-2.052446753E-1,1.524827480E0,1.889350533E0
6.734800210E-1,-2.067717910E-1,1.544069171E0,1.900345802E0
6.758332500E-1,-2.108950168E-1,1.563310862E0,1.912410021E0
6.781865310E-1,-2.148655206E-1,1.582552552E0,1.922183633E0
6.805397600E-1,-2.189887464E-1,1.601794243E0,1.933026195E0
6.828929890E-1,-2.217375487E-1,1.623326540E0,1.940203547E0
6.852462190E-1,-2.244863659E-1,1.645011663E0,1.949977160E0
6.875994480E-1,-2.310529798E-1,1.667918444E0,1.959445238E0
6.899526770E-1,-2.362451702E-1,1.690672517E0,1.969218850E0
6.923059060E-1,-2.417428046E-1,1.714800954E0,1.984948158E0
6.946591350E-1,-2.470877171E-1,1.741220117E0,1.998234153E0
6.970123640E-1,-2.499892414E-1,1.770082593E0,2.015185118E0
6.993656460E-1,-2.542651594E-1,1.800166845E0,2.030914307E0
7.017188750E-1,-2.571666837E-1,1.833763480E0,2.046643734E0
7.040721040E-1,-2.602209449E-1,1.866291046E0,2.062373161E0
7.064253330E-1,-2.606790662E-1,1.902331114E0,2.078102350E0
7.087785620E-1,-2.611372173E-1,1.936080337E0,2.090319395E0
7.111317910E-1,-2.615953386E-1,1.970898628E0,2.103605270E0
7.134850210E-1,-2.634278834E-1,2.009382010E0,2.119334459E0
7.158382500E-1,-2.638860047E-1,2.047865391E0,2.137507200E0
7.181914790E-1,-2.681619525E-1,2.088792086E0,2.153236628E0
7.205447600E-1,-2.651077211E-1,2.134453058E0,2.174005508E0
7.228979890E-1,-2.658712566E-1,2.177823305E0,2.195843220E0
7.252512190E-1,-2.664821148E-1,2.225927353E0,2.212794304E0
7.276044480E-1,-2.622061968E-1,2.277544022E0,2.232188702E0
7.299576770E-1,-2.577775419E-1,2.325648308E0,2.247917891E0
7.323109060E-1,-2.535016239E-1,2.383373260E0,2.263799906E0
7.346641350E-1,-2.516690791E-1,2.441098452E0,2.276933193E0
7.370173640E-1,-2.472404242E-1,2.503557444E0,2.284110546E0
7.393705940E-1,-2.429644912E-1,2.564795017E0,2.293731451E0
7.417238750E-1,-2.434226274E-1,2.630766392E0,2.298465490E0
7.440771040E-1,-2.452551723E-1,2.696738005E0,2.301825285E0
7.464303330E-1,-2.495311052E-1,2.765000105E0,2.305184841E0
7.487835620E-1,-2.574721277E-1,2.834636688E0,2.305948496E0
7.511367910E-1,-2.666348219E-1,2.906563997E0,2.305643082E0
7.534900210E-1,-2.783936262E-1,2.982003689E0,2.305184841E0
7.558432500E-1,-2.912214398E-1,3.056221485E0,2.298465490E0
7.581964790E-1,-3.064926267E-1,3.126927137E0,2.294342279E0
7.605497080E-1,-3.242071867E-1,3.197632790E0,2.286401272E0
7.629029370E-1,-3.432961702E-1,3.265894890E0,2.279834747E0
7.652562190E-1,-3.622324169E-1,3.332935333E0,2.271893740E0
7.676094480E-1,-3.823903799E-1,3.395089149E0,2.262883663E0
7.699626770E-1,-4.037700295E-1,3.458464384E0,2.252499342E0
7.723159060E-1,-4.275930822E-1,3.517105818E0,2.242114782E0
7.746691350E-1,-4.488200247E-1,3.569638729E0,2.233104944E0
7.770223640E-1,-4.714213610E-1,3.621102571E0,2.223942041E0
7.793755940E-1,-4.928010404E-1,3.670123100E0,2.217375517E0
7.817288230E-1,-5.140279531E-1,3.719143629E0,2.210656166E0
7.840821040E-1,-5.315898061E-1,3.763429880E0,2.204089642E0
7.864353330E-1,-5.503733754E-1,3.805273056E0,2.196301222E0
7.887885620E-1,-5.691569448E-1,3.845894337E0,2.187443972E0
7.911417910E-1,-5.867187977E-1,3.885446787E0,2.178434134E0
7.934950210E-1,-5.990884304E-1,3.926068068E0,2.165758848E0
7.958482500E-1,-6.152759194E-1,3.960733652E0,2.153236628E0
7.982014790E-1,-6.302416325E-1,3.994177580E0,2.141783237E0
8.005547080E-1,-6.452074051E-1,4.026399612E0,2.128039122E0
8.029079370E-1,-6.600204706E-1,4.056178570E0,2.114295006E0
8.052611660E-1,-6.748335361E-1,4.082445145E0,2.100398302E0
8.076144480E-1,-6.884248853E-1,4.103824615E0,2.087875843E0
8.099676770E-1,-6.995728016E-1,4.125357151E0,2.079171419E0
8.123209060E-1,-7.107207775E-1,4.140780926E0,2.066648960E0
8.146741350E-1,-7.204943299E-1,4.152692318E0,2.057944298E0
8.170273640E-1,-7.290462255E-1,4.162160397E0,2.046643734E0
8.193805940E-1,-7.327113152E-1,4.159717083E0,2.036870241E0
8.217338230E-1,-7.386670709E-1,4.158342838E0,2.026943922E0
8.240870520E-1,-7.409577370E-1,4.151165485E0,2.013505220E0
8.264402810E-1,-7.418739796E-1,4.138948441E0,1.998844981E0
8.287935620E-1,-7.427902818E-1,4.126883984E0,1.985406280E0
8.311467910E-1,-7.437065244E-1,4.114820004E0,1.969524264E0
8.335000210E-1,-7.420266867E-1,4.099090576E0,1.956085682E0
8.358532500E-1,-7.379034758E-1,4.081070423E0,1.939134598E0
8.382064790E-1,-7.337802649E-1,4.060606956E0,1.922183633E0
8.405597080E-1,-7.284353375E-1,4.035256863E0,1.910119414E0
8.429129370E-1,-7.217160463E-1,4.005325317E0,1.895611763E0
8.452661660E-1,-7.125533223E-1,3.970354557E0,1.877439022E0
8.476194480E-1,-7.021689415E-1,3.934314489E0,1.864305854E0
8.499726770E-1,-6.904101372E-1,3.892318726E0,1.848729253E0
8.523259060E-1,-6.749862432E-1,3.846657991E0,1.829487562E0
8.546791350E-1,-6.580352187E-1,3.796262980E0,1.809176922E0
8.570323640E-1,-6.400152445E-1,3.748158693E0,1.786270142E0
8.593855940E-1,-6.218425035E-1,3.695320606E0,1.761072636E0
8.617388230E-1,-6.024481058E-1,3.640038729E0,1.733431816E0
8.640920520E-1,-5.842754245E-1,3.584757090E0,1.707012653E0
8.664452810E-1,-5.647283196E-1,3.528253794E0,1.676775694E0
8.687985620E-1,-5.464028716E-1,3.472972155E0,1.646691442E0
8.711517910E-1,-5.256340504E-1,3.410512924E0,1.614163876E0
8.735050210E-1,-5.036435723E-1,3.349275589E0,1.582857966E0
8.758582500E-1,-4.839437306E-1,3.286663771E0,1.549108624E0
8.782114790E-1,-4.619532526E-1,3.221913815E0,1.520398855E0
8.805647080E-1,-4.424061179E-1,3.154567957E0,1.491536260E0
8.829179370E-1,-4.216373265E-1,3.087374687E0,1.463895440E0
8.852711660E-1,-4.033119082E-1,3.020028830E0,1.437476277E0
8.876243960E-1,-3.814741075E-1,2.952835560E0,1.415943980E0
8.899776770E-1,-3.645231128E-1,2.888085842E0,1.398076653E0
8.923309060E-1,-3.439069986E-1,2.824404955E0,1.376697063E0
8.946841350E-1,-3.232909143E-1,2.759655237E0,1.358829737E0
8.970373640E-1,-2.990097404E-1,2.699639559E0,1.344627500E0
8.993905940E-1,-2.773246467E-1,2.639623642E0,1.331799746E0
9.017438230E-1,-2.544178963E-1,2.582051277E0,1.317597508E0
9.040970520E-1,-2.301367074E-1,2.522188425E0,1.303548098E0
9.064502810E-1,-2.070772201E-1,2.469350100E0,1.286902428E0
9.088035100E-1,-1.866138428E-1,2.414221048E0,1.272700310E0
9.111567910E-1,-1.624853760E-1,2.360161066E0,1.256207347E0
9.135100210E-1,-1.444653720E-1,2.310987949E0,1.239409089E0
9.158632500E-1,-1.252236813E-1,2.264258146E0,1.221389055E0
9.182164790E-1,-1.085781008E-1,2.223331213E0,1.207034230E0
9.205697080E-1,-9.071081877E-2,2.186222315E0,1.191610336E0
9.229229370E-1,-7.773031294E-2,2.150182247E0,1.176033735E0
9.252761660E-1,-6.490252167E-2,2.117654800E0,1.160304427E0
9.276293960E-1,-5.451811850E-2,2.087723255E0,1.144727707E0
9.299826250E-1,-4.428642616E-2,2.058860779E0,1.136481285E0
9.323359060E-1,-3.649812192E-2,2.033663273E0,1.125638843E0
9.346891350E-1,-2.993151546E-2,2.004800797E0,1.117239594E0
9.370423640E-1,-2.214321308E-2,1.982046604E0,1.112505555E0
9.393955940E-1,-1.710372418E-2,1.958070874E0,1.110214949E0
9.417488230E-1,-1.068982668E-2,1.931651711E0,1.110520363E0
9.441020520E-1,-4.275931045E-3,1.906607032E0,1.109451294E0
9.464552810E-1,-3.054236295E-4,1.888586998E0,1.108382344E0
9.488085100E-1,4.734066315E-3,1.865832925E0,1.108535051E0
9.511617390E-1,7.482878864E-3,1.849034667E0,1.104869962E0
9.535150210E-1,1.374406368E-2,1.831014633E0,1.102579355E0
9.558682500E-1,1.771457121E-2,1.812994719E0,1.096623540E0
9.582214790E-1,2.046338283E-2,1.797418118E0,1.089446068E0
9.605747080E-1,2.183778957E-2,1.782910466E0,1.083337665E0
9.629279370E-1,2.473931387E-2,1.766112089E0,1.071273327E0
9.652811660E-1,2.748812735E-2,1.754047871E0,1.057834744E0
9.676343960E-1,2.779355086E-2,1.739540339E0,1.043174386E0
9.699876250E-1,2.687728032E-2,1.723810911E0,1.029735804E0
9.723409060E-1,2.229592577E-2,1.711746693E0,1.015075445E0
9.746941350E-1,1.756185852E-2,1.699682474E0,1.001636744E0
9.770473640E-1,1.420219894E-2,1.685174823E0,9.880454540E-1
9.794005940E-1,9.468132630E-3,1.677844763E0,9.807152748E-1
9.817538230E-1,7.177455351E-3,1.672957897E0,9.721634388E-1
9.841070520E-1,3.512371797E-3,1.668223858E0,9.684983492E-1
9.864602810E-1,-1.374406274E-3,1.662115335E0,9.659022093E-1
9.888135100E-1,-2.596100792E-3,1.658450365E0,9.634588361E-1
9.911667390E-1,-5.039489828E-3,1.652494550E0,9.646805525E-1
9.935199690E-1,-1.114796288E-2,1.647607803E0,9.622371197E-1
9.958732500E-1,-1.740914769E-2,1.645317078E0,9.645278454E-1
9.982264790E-1,-2.229592577E-2,1.641651988E0,9.657495022E-1
1.000579708E0,-2.840439789E-2,1.637986898E0,9.655967951E-1
1.002932937E0,-3.726168349E-2,1.632031202E0,9.704836011E-1
1.005286166E0,-4.596625641E-2,1.633252859E0,9.776610136E-1
1.007639396E0,-5.604523420E-2,1.632031202E0,9.860602021E-1
1.009992625E0,-6.612421572E-2,1.634474516E0,9.969027042E-1
1.012345854E0,-7.757759839E-2,1.639361382E0,1.006523609E0
1.014699083E0,-9.009996802E-2,1.644095421E0,1.014922738E0
1.017052364E0,-1.038440317E-1,1.651272893E0,1.019656777E0
1.019405594E0,-1.175880954E-1,1.659672022E0,1.023016453E0
1.021758823E0,-1.349972486E-1,1.670361876E0,1.022711039E0
1.024112052E0,-1.536280811E-1,1.683495045E0,1.018740535E0
1.026465281E0,-1.710372269E-1,1.698918939E0,1.012326598E0
1.028818510E0,-1.933331639E-1,1.718007922E0,1.002094984E0
1.031171739E0,-2.170034945E-1,1.738165855E0,9.956810474E-1
1.033524969E0,-2.441861928E-1,1.757254839E0,9.816315174E-1
1.035878250E0,-2.738122940E-1,1.779703498E0,9.701781869E-1
1.038231479E0,-3.061871827E-1,1.802304864E0,9.597937465E-1
1.040584708E0,-3.394783735E-1,1.818950415E0,9.469659925E-1
1.042937937E0,-3.767400384E-1,1.839108348E0,9.365815520E-1
1.045291166E0,-4.114056230E-1,1.855754018E0,9.286405444E-1
1.047644396E0,-4.485146105E-1,1.868581772E0,9.194778204E-1
1.049997625E0,-4.807367921E-1,1.878049850E0,9.153546095E-1
1.052350854E0,-5.131117105E-1,1.885074615E0,9.124531150E-1
1.054704083E0,-5.415160656E-1,1.889808655E0,9.107732773E-1
1.057057364E0,-5.700731874E-1,1.887212634E0,9.090934396E-1
1.059410594E0,-5.972558856E-1,1.883547544E0,9.075663090E-1
1.061763823E0,-6.195518374E-1,1.876217365E0,9.048175216E-1
1.064117052E0,-6.355865598E-1,1.864153147E0,9.034430981E-1
1.066470281E0,-6.526902914E-1,1.850867152E0,9.008470178E-1
1.068823510E0,-6.662816405E-1,1.831625462E0,8.994725943E-1
1.071176739E0,-6.759024858E-1,1.809940457E0,8.956547976E-1
1.073529969E0,-6.818582416E-1,1.787186384E0,8.895463347E-1
1.075883198E0,-6.865923405E-1,1.761836171E0,8.822161555E-1
1.078236479E0,-6.861341596E-1,1.732973695E0,8.713735938E-1
1.080589708E0,-6.856760383E-1,1.703042150E0,8.605310917E-1
1.082942937E0,-6.815528274E-1,1.671736240E0,8.460234404E-1
1.085296166E0,-6.772769094E-1,1.635696292E0,8.315158486E-1
1.087649396E0,-6.717792749E-1,1.597212911E0,8.133431077E-1
1.090002625E0,-6.650599241E-1,1.553842664E0,7.951704264E-1
1.092355854E0,-6.592568755E-1,1.509403586E0,7.710419297E-1
1.094709083E0,-6.560499668E-1,1.464811683E0,7.443174124E-1
1.097049239E0,-6.514685750E-1,1.416707516E0,7.114843726E-1
1.099415594E0,-6.505523324E-1,1.368450522E0,6.786513329E-1
1.101768823E0,-6.484143734E-1,1.315459609E0,6.470399499E-1
1.104108927E0,-6.438329816E-1,1.264912009E0,6.142069101E-1
1.106475281E0,-6.316160560E-1,1.210852027E0,5.778614879E-1
1.108828510E0,-6.134433746E-1,1.159082651E0,5.453338623E-1
1.111181739E0,-5.864133835E-1,1.102579355E0,5.115845799E-1
1.113534969E0,-5.544965863E-1,1.043785214E0,4.779879749E-1
1.115888198E0,-5.201364160E-1,9.860602021E-1,4.492781460E-1
1.118241479E0,-4.831801951E-1,9.248227477E-1,4.194993675E-1
1.120594708E0,-4.474456310E-1,8.576295376E-1,3.921639323E-1
1.122947937E0,-4.130854607E-1,7.893673778E-1,3.671191931E-1
1.125301166E0,-3.775036037E-1,7.160657048E-1,3.422271907E-1
1.127654396E0,-3.454341292E-1,6.429167390E-1,3.159607351E-1
1.130007625E0,-3.136700690E-1,5.734328628E-1,2.959555089E-1
1.132360854E0,-2.831276953E-1,5.050179958E-1,2.782409191E-1
1.134714135E0,-2.562504113E-1,4.390464723E-1,2.593046725E-1
1.137067312E0,-2.283041626E-1,3.790307343E-1,2.415900975E-1
1.139420594E0,-2.003578991E-1,3.239017725E-1,2.226538211E-1
1.141773823E0,-1.698155403E-1,2.747285664E-1,2.012741715E-1
1.144127052E0,-1.394258887E-1,2.290677279E-1,1.809635013E-1
1.146480281E0,-1.076618284E-1,1.895153672E-1,1.583621502E-1
1.148833510E0,-7.360709459E-2,1.559187621E-1,1.357607991E-1
1.151186739E0,-4.077405483E-2,1.259872466E-1,1.154501289E-1
1.153539969E0,-9.315420873E-3,1.043021679E-1,9.269607067E-2
1.155893198E0,2.473931387E-2,8.276980370E-2,7.131642103E-2
1.158246479E0,5.360184610E-2,6.474980712E-2,5.222744122E-2
1.160599708E0,8.383878320E-2,5.161659420E-2,3.542914242E-2
1.162952937E0,1.102579311E-1,3.955236077E-2,1.634016447E-2
1.165306166E0,1.365243644E-1,2.397575416E-2,3.359660041E-3
1.167659396E0,1.617218107E-1,1.068982668E-2,-1.343864016E-2
1.170012625E0,1.818797737E-1,-1.221694518E-3,-2.779355086E-2
1.172365854E0,2.021904439E-1,-1.572931744E-2,-4.581354558E-2
1.174719083E0,2.223484069E-1,-2.641914412E-2,-6.139015034E-2
1.177072364E0,2.412846684E-1,-4.092676565E-2,-7.696675509E-2
1.179425594E0,2.589992285E-1,-5.528167635E-2,-9.376505762E-2
1.181778823E0,2.768665254E-1,-6.734590977E-2,-1.143811494E-1
1.184132052E0,2.945810854E-1,-7.711946964E-2,-1.348445266E-1
1.186485281E0,3.136700690E-1,-8.674030751E-2,-1.615691036E-1
1.188838510E0,3.339807391E-1,-9.636115283E-2,-1.869192570E-1
1.191191739E0,3.506263196E-1,-1.024696305E-1,-2.147128135E-1
1.193544969E0,3.672719002E-1,-1.050657257E-1,-2.426590770E-1
1.195898198E0,3.863608837E-1,-1.148392856E-1,-2.718270421E-1
1.198251479E0,4.042281806E-1,-1.209477559E-1,-3.008422852E-1
1.200604708E0,4.196520746E-1,-1.305686086E-1,-3.287885487E-1
1.202957937E0,4.326325655E-1,-1.415638477E-1,-3.555130959E-1
1.205311166E0,4.479037523E-1,-1.536280811E-1,-3.785725832E-1
1.207664396E0,4.645493329E-1,-1.669140160E-1,-4.002576768E-1
1.210017625E0,4.773771465E-1,-1.814216375E-1,-4.196520746E-1
1.212370854E0,4.926483035E-1,-1.957765520E-1,-4.413371384E-1
1.214724083E0,5.054761171E-1,-2.127275616E-1,-4.582881629E-1
1.217077312E0,5.245651007E-1,-2.270824611E-1,-4.775298536E-1
1.219430594E0,5.410579443E-1,-2.428117841E-1,-4.943281412E-1
1.221783823E0,5.599942207E-1,-2.596100867E-1,-5.074613690E-1
1.224137052E0,5.764871240E-1,-2.776300907E-1,-5.231906772E-1
1.226490281E0,5.942016840E-1,-2.956500649E-1,-5.387672782E-1
1.228843510E0,6.120689511E-1,-3.148917556E-1,-5.555655956E-1
1.231196739E0,6.297835112E-1,-3.377985358E-1,-5.723638535E-1
1.233549969E0,6.464291215E-1,-3.607053161E-1,-5.903838873E-1
1.235903198E0,6.655181050E-1,-3.859027624E-1,-6.120689511E-1
1.238256479E0,6.821636558E-1,-4.111002088E-1,-6.313106418E-1
1.240609708E0,6.988092661E-1,-4.352286756E-1,-6.517740488E-1
1.242962937E0,7.154548764E-1,-4.628695250E-1,-6.746807694E-1
1.245316166E0,7.259919643E-1,-4.917320311E-1,-6.965186000E-1
1.247669396E0,7.389724851E-1,-5.170822144E-1,-7.182036638E-1
1.250022625E0,7.519529462E-1,-5.447230339E-1,-7.400414348E-1
1.252375854E0,7.611156702E-1,-5.748072863E-1,-7.617265582E-1
1.254729083E0,7.716528177E-1,-6.024481058E-1,-7.835643291E-1
1.257082364E0,7.808154821E-1,-6.337540150E-1,-8.015843034E-1
1.259435594E0,7.899782062E-1,-6.626165509E-1,-8.197570443E-1
1.261788823E0,8.017370105E-1,-6.939224601E-1,-8.403730989E-1
1.264142052E0,8.145648241E-1,-7.240067124E-1,-8.583931327E-1
1.266495281E0,8.287670016E-1,-7.563816309E-1,-8.776348233E-1
1.268848510E0,8.441908956E-1,-7.852441669E-1,-8.980981708E-1
1.271201739E0,8.583931327E-1,-8.128849864E-1,-9.136747718E-1
1.273554969E0,8.736643195E-1,-8.464815617E-1,-9.280297160E-1
1.275908198E0,8.903098702E-1,-8.776348233E-1,-9.387195110E-1
1.278261479E0,9.054283500E-1,-9.087880254E-1,-9.433009028E-1
1.280614708E0,9.229902029E-1,-9.374978542E-1,-9.454388618E-1
1.282967937E0,9.381086826E-1,-9.674293399E-1,-9.437590241E-1
1.285321166E0,9.556705356E-1,-9.961391687E-1,-9.410101771E-1
1.287674396E0,9.694145918E-1,-1.024848938E0,-9.358180165E-1
1.290027625E0,9.868237376E-1,-1.051115394E0,-9.268079996E-1
1.292380854E0,1.001789451E0,-1.081046939E0,-9.203941226E-1
1.294734083E0,1.020573020E0,-1.101052165E0,-9.165763259E-1
1.297087364E0,1.034317136E0,-1.123806238E0,-9.113841057E-1
1.299440594E0,1.048061132E0,-1.142895222E0,-9.110786915E-1
1.301793823E0,1.061805248E0,-1.157250166E0,-9.107732773E-1
1.304147052E0,1.073105931E0,-1.168092728E0,-9.118422270E-1
1.306500281E0,1.081810474E0,-1.176339149E0,-9.129112363E-1
1.308853510E0,1.086849928E0,-1.181225896E0,-9.165763259E-1
1.311206739E0,1.091889501E0,-1.177560806E0,-9.176452756E-1
1.313559969E0,1.090515018E0,-1.170383334E0,-9.165763259E-1
1.315913198E0,1.089293361E0,-1.156028390E0,-9.165763259E-1
1.318266479E0,1.086544514E0,-1.138008475E0,-9.167290330E-1
1.320619708E0,1.078908920E0,-1.111589313E0,-9.132166505E-1
1.322972937E0,1.071273327E0,-1.085322857E0,-9.097042680E-1
1.325326166E0,1.062263370E0,-1.055238605E0,-9.075663090E-1
1.327679396E0,1.052031636E0,-1.019351363E0,-9.017632604E-1
1.330032625E0,1.043021679E0,-9.833113551E-1,-8.933641315E-1
1.332385854E0,1.032484531E0,-9.400939345E-1,-8.814526200E-1
1.334739083E0,1.019656777E0,-8.968765140E-1,-8.707627654E-1
1.337092312E0,1.010341406E0,-8.489249945E-1,-8.588512540E-1
1.339445594E0,9.973608851E-1,-8.009734750E-1,-8.483141065E-1
1.341798823E0,9.856020808E-1,-7.493568659E-1,-8.339592218E-1
1.344152052E0,9.726215601E-1,-7.024743557E-1,-8.183826208E-1
1.346505281E0,9.570449591E-1,-6.557445526E-1,-8.028060198E-1
1.348858510E0,9.403993487E-1,-6.100836992E-1,-7.861604095E-1
1.351211739E0,9.261971712E-1,-5.656445622E-1,-7.705838084E-1
1.353564969E0,9.132166505E-1,-5.236487985E-1,-7.562289238E-1
1.355918198E0,8.990144730E-1,-4.827220440E-1,-7.406523228E-1
1.358271479E0,8.848122358E-1,-4.419479966E-1,-7.264500856E-1
1.360624708E0,8.744278550E-1,-4.048390090E-1,-7.156075835E-1
1.362977937E0,8.641961813E-1,-3.675773442E-1,-7.061394453E-1
1.365331166E0,8.564078808E-1,-3.387148082E-1,-6.977402568E-1
1.367684396E0,8.486195803E-1,-3.110739589E-1,-6.882721782E-1
1.370037625E0,8.408312798E-1,-2.870981991E-1,-6.810947061E-1
1.372390854E0,8.342646360E-1,-2.690782249E-1,-6.702521443E-1
1.374744083E0,8.302941322E-1,-2.498365343E-1,-6.594096422E-1
1.377097364E0,8.263236284E-1,-2.354816198E-1,-6.484143734E-1
1.379450594E0,8.260182142E-1,-2.257080674E-1,-6.374191046E-1
1.381803823E0,8.283088803E-1,-2.183778882E-1,-6.239804626E-1
1.384157052E0,8.267817497E-1,-2.159345001E-1,-6.129852533E-1
1.386510281E0,8.302941322E-1,-2.147128135E-1,-6.019899845E-1
1.388863510E0,8.351809382E-1,-2.194468826E-1,-5.945070982E-1
1.391216739E0,8.400676847E-1,-2.266243398E-1,-5.870242119E-1
1.393569969E0,8.438854814E-1,-2.385358512E-1,-5.819846988E-1
1.395923198E0,8.475505710E-1,-2.564031482E-1,-5.795413256E-1
1.398276479E0,8.489249945E-1,-2.744231224E-1,-5.781669021E-1
1.400629708E0,8.515210748E-1,-2.912214398E-1,-5.767925382E-1
1.402982937E0,8.542698622E-1,-3.139754832E-1,-5.766398311E-1
1.405336166E0,8.568660021E-1,-3.355078697E-1,-5.803049207E-1
1.407689396E0,8.620582223E-1,-3.619270027E-1,-5.813738704E-1
1.410042625E0,8.635852933E-1,-3.895678520E-1,-5.824428797E-1
1.412395854E0,8.675557971E-1,-4.182776511E-1,-5.847335458E-1
1.414749083E0,8.727480173E-1,-4.518742561E-1,-5.856497884E-1
1.417102364E0,8.754968047E-1,-4.879142344E-1,-5.854970813E-1
1.419455594E0,8.782456517E-1,-5.250232220E-1,-5.890094638E-1
1.421808823E0,8.834378719E-1,-5.598415136E-1,-5.888567567E-1
1.424162052E0,8.861866593E-1,-5.981721878E-1,-5.873296261E-1
1.426515281E0,8.913788795E-1,-6.377245188E-1,-5.859552622E-1
1.428868510E0,8.916842937E-1,-6.760551929E-1,-5.858024955E-1
1.431221739E0,8.956547976E-1,-7.096518278E-1,-5.880932212E-1
1.433574969E0,8.971819282E-1,-7.456917763E-1,-5.891621709E-1
1.435928250E0,8.987090588E-1,-7.780666947E-1,-5.914528370E-1
1.438281479E0,8.990144730E-1,-8.067765236E-1,-5.937435627E-1
1.440634708E0,9.029849768E-1,-8.344173431E-1,-5.972558856E-1
1.442987937E0,9.055810571E-1,-8.620582223E-1,-5.983248949E-1
1.445341166E0,9.121476412E-1,-8.860339522E-1,-6.030589342E-1
1.447694396E0,9.159654379E-1,-9.087880254E-1,-6.053496599E-1
1.450047625E0,9.223793745E-1,-9.303203821E-1,-6.100836992E-1
1.452400854E0,9.263498783E-1,-9.520054460E-1,-6.135960817E-1
1.454754083E0,9.277243018E-1,-9.688037634E-1,-6.146650314E-1
1.457107364E0,9.290986657E-1,-9.866710305E-1,-6.158867478E-1
1.459460594E0,9.280297160E-1,-1.005912781E0,-6.181774139E-1
1.461813823E0,9.245173335E-1,-1.025154471E0,-6.157340407E-1
1.464167052E0,9.159654379E-1,-1.046686769E0,-6.145123243E-1
1.466520281E0,9.072608948E-1,-1.067150116E0,-6.109999418E-1
1.468873510E0,8.974873424E-1,-1.088682532E0,-6.036698222E-1
1.471226739E0,8.863393664E-1,-1.115101695E0,-5.963396430E-1
1.473579969E0,8.727480173E-1,-1.133121610E0,-5.891621709E-1
1.475933250E0,8.628217578E-1,-1.157097459E0,-5.818319917E-1
1.478286479E0,8.528954983E-1,-1.177408099E0,-5.745018721E-1
1.480639708E0,8.443436027E-1,-1.197871447E0,-5.673243999E-1
1.482992937E0,8.368607163E-1,-1.218182087E0,-5.624375939E-1
1.485346166E0,8.319739699E-1,-1.236202121E0,-5.599942207E-1
1.487699396E0,8.270871639E-1,-1.253000498E0,-5.563291311E-1
1.490052625E0,8.222004175E-1,-1.268577099E0,-5.514423847E-1
1.492405906E0,8.197570443E-1,-1.285375357E0,-5.476245880E-1
1.494759135E0,8.173136115E-1,-1.300951958E0,-5.427377820E-1
1.497112364E0,8.148702383E-1,-1.312863469E0,-5.366293192E-1
1.499465594E0,8.098307252E-1,-1.323706031E0,-5.268557668E-1
1.501818823E0,8.072346449E-1,-1.333174109E0,-5.195255876E-1
1.504172052E0,8.046385646E-1,-1.337908268E0,-5.085303187E-1
1.506525281E0,8.020424247E-1,-1.342642307E0,-4.987567961E-1
1.508878510E0,8.006680608E-1,-1.347376347E0,-4.877615273E-1
1.511231791E0,8.005153537E-1,-1.349667072E0,-4.778352678E-1
1.513585021E0,8.003626466E-1,-1.348445296E0,-4.656183124E-1
1.515938250E0,8.014315963E-1,-1.348445296E0,-4.558447599E-1
1.518291479E0,8.012788892E-1,-1.347070932E0,-4.460712075E-1
1.520644708E0,8.009734750E-1,-1.345849276E0,-4.326325655E-1
1.522997937E0,8.020424247E-1,-1.345696568E0,-4.191939235E-1
1.525351166E0,8.017370105E-1,-1.343253136E0,-4.080459774E-1
1.527704396E0,8.003626466E-1,-1.342031479E0,-3.958290219E-1
1.530057677E0,8.014315963E-1,-1.338366389E0,-3.836120665E-1
1.532410906E0,8.011261821E-1,-1.334548593E0,-3.701734245E-1
1.534764135E0,8.020424247E-1,-1.333326817E0,-3.555130959E-1
1.537117364E0,8.006680608E-1,-1.328440070E0,-3.420744538E-1
1.539470594E0,8.002098799E-1,-1.321109891E0,-3.249707520E-1
1.541823823E0,7.976137996E-1,-1.318666577E0,-3.103103936E-1
1.544177052E0,8.009734750E-1,-1.312558055E0,-2.919849753E-1
1.546530281E0,8.031114340E-1,-1.306449533E0,-2.735068500E-1
1.548883562E0,8.052493930E-1,-1.301410079E0,-2.564031482E-1
1.551236791E0,8.061656952E-1,-1.296523333E0,-2.392994165E-1
1.553590021E0,8.083036542E-1,-1.286749721E0,-2.208212912E-1
1.555943250E0,8.078454733E-1,-1.283084631E0,-2.012741715E-1
1.558296479E0,8.099834919E-1,-1.273311138E0,-1.829487532E-1
1.560649708E0,8.060129285E-1,-1.269646049E0,-1.658450365E-1
1.563002937E0,8.031114340E-1,-1.264759302E0,-1.462979168E-1
1.565356166E0,7.991409302E-1,-1.257429123E0,-1.305686086E-1
1.567709396E0,7.937960029E-1,-1.247808218E0,-1.146865711E-1
1.570062677E0,7.896727920E-1,-1.238034725E0,-9.651386738E-2
1.572415906E0,7.844805717E-1,-1.229635477E0,-7.818844914E-2
1.574769135E0,7.765395641E-1,-1.216349602E0,-6.001574174E-2
1.577122364E0,7.687512636E-1,-1.205507040E0,-4.306473210E-2
1.579475594E0,7.634063363E-1,-1.192068458E0,-2.229592577E-2
1.581828823E0,7.543963790E-1,-1.181225896E0,-4.123218823E-3
1.584182052E0,7.440119386E-1,-1.170383334E0,1.160609815E-2
1.586535281E0,7.350019813E-1,-1.158319116E0,2.855710872E-2
1.588888562E0,7.259919643E-1,-1.146254897E0,4.672981426E-2
1.591241791E0,7.156075835E-1,-1.135412335E0,6.490252167E-2
1.593595021E0,7.079719901E-1,-1.128082156E0,8.078455180E-2
1.595948250E0,7.026270628E-1,-1.119683027E0,9.773556143E-2
1.598301479E0,6.998782754E-1,-1.112352848E0,1.123958975E-1
1.600654708E0,6.933116317E-1,-1.108687758E0,1.281252056E-1
1.603007937E0,6.893411279E-1,-1.102579355E0,1.403421611E-1
1.605361166E0,6.865923405E-1,-1.092958450E0,1.537808031E-1
1.607714396E0,6.862868667E-1,-1.085628271E0,1.684411317E-1
1.610067677E0,6.823163629E-1,-1.081963181E0,1.794363856E-1
1.612420906E0,6.809419990E-1,-1.074633002E0,1.915006191E-1
1.614774135E0,6.781931520E-1,-1.067455530E0,2.000524700E-1
1.617127364E0,6.730009913E-1,-1.062568784E0,2.122694254E-1
1.619480594E0,6.702521443E-1,-1.058903694E0,2.255553454E-1
1.621833823E0,6.664343476E-1,-1.055238605E0,2.353289127E-1
1.624187052E0,6.636855602E-1,-1.050351858E0,2.463241518E-1
1.626540281E0,6.584933400E-1,-1.046686769E0,2.585411072E-1
1.628893562E0,6.533011198E-1,-1.039509296E0,2.681619525E-1
1.631246791E0,6.494833231E-1,-1.034622550E0,2.779355049E-1
1.633600021E0,6.442911625E-1,-1.028666735E0,2.875563502E-1
1.635953250E0,6.403206587E-1,-1.020114899E0,2.973299026E-1
1.638306479E0,6.363501549E-1,-1.011715770E0,3.069507480E-1
1.640659708E0,6.323796511E-1,-1.004538298E0,3.179459870E-1
1.643012937E0,6.259657145E-1,-9.972081780E-1,3.275668323E-1
1.645366219E0,6.245913506E-1,-9.888089895E-1,3.373403847E-1
1.647719448E0,6.218425035E-1,-9.814788103E-1,3.483356535E-1
1.650072677E0,6.178719997E-1,-9.767447710E-1,3.591781855E-1
1.652425906E0,6.139014959E-1,-9.730796814E-1,3.713951409E-1
1.654779135E0,6.100836992E-1,-9.729269743E-1,3.823903799E-1
1.657132364E0,6.048914790E-1,-9.741486907E-1,3.970507085E-1
1.659485594E0,5.996993184E-1,-9.739959836E-1,4.078932703E-1
1.661838823E0,5.945070982E-1,-9.739959836E-1,4.225535989E-1
1.664192104E0,5.905365944E-1,-9.750649333E-1,4.372139275E-1
1.666545333E0,5.854970813E-1,-9.713998437E-1,4.457657933E-1
1.668898562E0,5.790832043E-1,-9.654440880E-1,4.553866386E-1
1.671251791E0,5.726693273E-1,-9.581139088E-1,4.674508572E-1
1.673605021E0,5.650337338E-1,-9.497147799E-1,4.760027230E-1
1.675958250E0,5.560237169E-1,-9.341381788E-1,4.868452549E-1
1.678311479E0,5.483881235E-1,-9.196305275E-1,4.940227270E-1
1.680664760E0,5.405998230E-1,-9.005415440E-1,4.998257756E-1
1.683017989E0,5.315898061E-1,-8.800781965E-1,5.094466209E-1
1.685371219E0,5.239542127E-1,-8.596147895E-1,5.202891231E-1
1.687724448E0,5.186093450E-1,-8.356390595E-1,5.274665952E-1
1.690077677E0,5.121954083E-1,-8.079982400E-1,5.346440673E-1
1.692430906E0,5.044071078E-1,-7.815790772E-1,5.393781066E-1
1.694784135E0,4.967715442E-1,-7.504258752E-1,5.427377820E-1
1.697137364E0,4.863871336E-1,-7.192726731E-1,5.497625470E-1
1.699490646E0,4.749337435E-1,-6.868977547E-1,5.520532131E-1
1.701843875E0,4.610369802E-1,-6.557445526E-1,5.554128885E-1
1.704197104E0,4.471401870E-1,-6.270347238E-1,5.587725043E-1
1.706550333E0,4.308000207E-1,-5.948125124E-1,5.583143830E-1
1.708903562E0,4.132381678E-1,-5.659499764E-1,5.592306852E-1
1.711256791E0,3.967452943E-1,-5.360184908E-1,5.650337338E-1
1.713610021E0,3.830012381E-1,-5.060869455E-1,5.659499764E-1
1.715963250E0,3.652866483E-1,-4.738647640E-1,5.667135715E-1
1.718316531E0,3.465031087E-1,-4.463766217E-1,5.664080977E-1
1.720669760E0,3.289412558E-1,-4.164451063E-1,5.659499764E-1
1.723022989E0,3.113794029E-1,-3.840702176E-1,5.668662786E-1
1.725376219E0,2.925958335E-1,-3.518480062E-1,5.664080977E-1
1.727729448E0,2.712161839E-1,-3.206948042E-1,5.671716928E-1
1.730082677E0,2.499892414E-1,-2.884726226E-1,5.644228458E-1
1.732435906E0,2.273878902E-1,-2.609844804E-1,5.651864409E-1
1.734789135E0,2.047865391E-1,-2.286095917E-1,5.671716928E-1
1.737142416E0,1.834068894E-1,-1.998997629E-1,5.703786016E-1
1.739495646E0,1.609582454E-1,-1.724116355E-1,5.723638535E-1
1.741848875E0,1.408002973E-1,-1.459924877E-1,5.781669021E-1
1.744202104E0,1.207950488E-1,-1.185043678E-1,5.801522136E-1
1.746555333E0,1.006370857E-1,-9.101624042E-2,5.847335458E-1
1.748908562E0,8.429691941E-2,-6.826218218E-2,5.856497884E-1
1.751261791E0,6.917845458E-2,-4.306473210E-2,5.890094638E-1
1.753615021E0,5.528167635E-2,-1.801999472E-2,5.899257660E-1
1.755968302E0,4.398100078E-2,4.734066315E-3,5.908420086E-1
1.758321531E0,3.390202299E-2,3.115320951E-2,5.931326747E-1
1.760674760E0,2.382304333E-2,5.024218559E-2,5.928272605E-1
1.763027989E0,1.878355257E-2,6.826218218E-2,5.926745534E-1
1.765381219E0,1.603474095E-2,8.383878320E-2,5.951179266E-1
1.767734448E0,1.481304597E-2,9.819369763E-2,5.949652195E-1
1.770087677E0,1.588202827E-2,1.065928489E-1,5.949652195E-1
1.772440958E0,1.710372418E-2,1.149920002E-1,5.949652195E-1
1.774794187E0,1.954711229E-2,1.174353883E-1,5.974085927E-1
1.777147416E0,2.061609551E-2,1.221694499E-1,5.998520255E-1
1.779500646E0,2.428117767E-2,1.258345395E-1,6.022953987E-1
1.781853875E0,2.916795574E-2,1.282779276E-1,6.073349118E-1
1.784207104E0,3.161134571E-2,1.319430023E-1,6.109999418E-1
1.786560333E0,3.527642787E-2,1.368297935E-1,6.146650314E-1
1.788913562E0,3.634541109E-2,1.404948682E-1,6.195518374E-1
1.791266791E0,4.001049697E-2,1.476723254E-1,6.245913506E-1
1.793620073E0,4.596625641E-2,1.537808031E-1,6.282563806E-1
1.795973302E0,4.840964451E-2,1.585148573E-1,6.306998134E-1
1.798326531E0,5.451811850E-2,1.609582454E-1,6.345176101E-1
1.800679760E0,6.077930331E-2,1.634016484E-1,6.357392669E-1
1.803032989E0,6.322269142E-2,1.658450365E-1,6.371136904E-1
1.805386219E0,6.688777357E-2,1.670667231E-1,6.407787800E-1
1.807739448E0,7.040014863E-2,1.695101112E-1,6.456655264E-1
1.810092677E0,7.162184268E-2,1.719534993E-1,6.493306160E-1
1.812445958E0,7.040014863E-2,1.707318127E-1,6.505523324E-1
1.814799187E0,7.024743408E-2,1.707318127E-1,6.542174220E-1
1.817152416E0,6.520794332E-2,1.719534993E-1,6.591041684E-1
1.819505646E0,5.894676223E-2,1.719534993E-1,6.650599241E-1
1.821858875E0,5.024218559E-2,1.707318127E-1,6.687250137E-1
1.824212104E0,3.771981969E-2,1.731752008E-1,6.734591126E-1
1.826565333E0,2.641914412E-2,1.766875684E-1,6.781931520E-1
1.828918614E0,1.145338640E-2,1.791309565E-1,6.839962006E-1
1.831271844E0,-2.290677279E-3,1.814216375E-1,6.850652099E-1
1.833625073E0,-1.710372418E-2,1.861557066E-1,6.847597957E-1
1.835978302E0,-3.084778599E-2,1.933331639E-1,6.882721782E-1
1.838331531E0,-4.443913698E-2,1.980672181E-1,6.843016148E-1
1.840684760E0,-5.940489471E-2,2.040229887E-1,6.817055345E-1
1.843037989E0,-6.933116168E-2,2.112004459E-1,6.803311110E-1
1.845391219E0,-7.925742865E-2,2.182251811E-1,6.777350307E-1
1.847744500E0,-8.780929446E-2,2.229592502E-1,6.726955175E-1
1.850097729E0,-9.529217333E-2,2.264716178E-1,6.664343476E-1
1.852450958E0,-1.014006436E-1,2.301367074E-1,6.613948941E-1
1.854804187E0,-1.125486046E-1,2.324273884E-1,6.575770974E-1
1.857157416E0,-1.211004704E-1,2.324273884E-1,6.549809575E-1
1.859510646E0,-1.322484314E-1,2.370087355E-1,6.487197876E-1
1.861863875E0,-1.432436854E-1,2.382304370E-1,6.412369013E-1
1.864217104E0,-1.543916464E-1,2.392994165E-1,6.348230243E-1
1.866570385E0,-1.653869003E-1,2.440334857E-1,6.248967648E-1
1.868923614E0,-1.765348613E-1,2.498365343E-1,6.174138784E-1
1.871276844E0,-1.887518018E-1,2.570139766E-1,6.085565686E-1
1.873630073E0,-2.023431510E-1,2.628170252E-1,5.998520255E-1
1.875983302E0,-2.145601064E-1,2.710634768E-1,5.909947157E-1
1.878336531E0,-2.257080674E-1,2.782409191E-1,5.798467398E-1
1.880689760E0,-2.354816198E-1,2.852656841E-1,5.711421967E-1
1.883042989E0,-2.478512824E-1,2.947337925E-1,5.610632300E-1
1.885396271E0,-2.588465214E-1,3.066453338E-1,5.511369109E-1
1.887749500E0,-2.712161839E-1,3.173351586E-1,5.422796607E-1
1.890102729E0,-2.811424434E-1,3.292466700E-1,5.347967744E-1
1.892455958E0,-2.896943092E-1,3.436015844E-1,5.271611810E-1
1.894809187E0,-2.983988822E-1,3.590254784E-1,5.209000111E-1
1.897162416E0,-3.058817685E-1,3.746020794E-1,5.146388412E-1
1.899515646E0,-3.107685447E-1,3.900259733E-1,5.022691488E-1
1.901868875E0,-3.182514310E-1,4.068242610E-1,4.947862923E-1
1.904222156E0,-3.243598938E-1,4.246915579E-1,4.822639227E-1
1.906575385E0,-3.316900730E-1,4.413371384E-1,4.711159468E-1
1.908928614E0,-3.391729295E-1,4.616478086E-1,4.599680007E-1
1.911281844E0,-3.489464819E-1,4.819584787E-1,4.474456310E-1
1.913635073E0,-3.588727713E-1,5.033381581E-1,4.338542521E-1
1.915988302E0,-3.700207174E-1,5.236487985E-1,4.237752855E-1
1.918341531E0,-3.785725832E-1,5.462501645E-1,4.100312293E-1
1.920694760E0,-3.897205591E-1,5.677825212E-1,3.999522328E-1
1.923048041E0,-3.996468186E-1,5.868715048E-1,3.888042867E-1
1.925401271E0,-4.132381678E-1,6.082511544E-1,3.799470067E-1
1.927754500E0,-4.257605374E-1,6.310052276E-1,3.723114133E-1
1.930107729E0,-4.356867969E-1,6.488724947E-1,3.648285270E-1
1.932460958E0,-4.456130862E-1,6.667397618E-1,3.608580232E-1
1.934814187E0,-4.555393457E-1,6.870504618E-1,3.558185399E-1
1.937167416E0,-4.642439187E-1,7.038487792E-1,3.481829464E-1
1.939520698E0,-4.717268050E-1,7.217160463E-1,3.431434333E-1
1.941873927E0,-4.805840850E-1,7.385143638E-1,3.429907262E-1
1.944227156E0,-4.892886579E-1,7.563816309E-1,3.414636254E-1
1.946580385E0,-4.967715442E-1,7.695148587E-1,3.376458287E-1
1.948933614E0,-5.030327439E-1,7.815790772E-1,3.338280320E-1
1.951286844E0,-5.080721974E-1,7.910472155E-1,3.289412558E-1
1.953640073E0,-5.140279531E-1,8.005153537E-1,3.177932799E-1
1.955993302E0,-5.164713860E-1,8.089144826E-1,3.090887070E-1
1.958346583E0,-5.227325559E-1,8.171609044E-1,3.040492237E-1
1.960699812E0,-5.288410187E-1,8.243383765E-1,2.990097404E-1
1.963053041E0,-5.349494815E-1,8.327375054E-1,2.929012477E-1
1.965406271E0,-5.375455618E-1,8.409839869E-1,2.890834510E-1
1.967759500E0,-5.399889946E-1,8.493831158E-1,2.854183912E-1
1.970112729E0,-5.450284481E-1,8.590039611E-1,2.840439677E-1
1.972465958E0,-5.486935377E-1,8.672503829E-1,2.814478874E-1
1.974819187E0,-5.512896776E-1,8.780929446E-1,2.802261710E-1
1.977172469E0,-5.525113344E-1,8.901571631E-1,2.812951505E-1
1.979525698E0,-5.538857579E-1,8.984035850E-1,2.800734639E-1
1.981878927E0,-5.502206683E-1,9.068027735E-1,2.776300907E-1
1.984232156E0,-5.451811552E-1,9.164236188E-1,2.739650011E-1
1.986585385E0,-5.402944088E-1,9.248227477E-1,2.715215981E-1
1.988938614E0,-5.315898061E-1,9.321529269E-1,2.692309320E-1
1.991291844E0,-5.267030597E-1,9.416210651E-1,2.643441558E-1
1.993645125E0,-5.192201734E-1,9.524635673E-1,2.644968629E-1
1.995998354E0,-5.106683373E-1,9.573503733E-1,2.657185495E-1
1.998351583E0,-5.031854510E-1,9.681929350E-1,2.634278834E-1
2.000704812E0,-4.958552718E-1,9.741486907E-1,2.634278834E-1
2.003058041E0,-4.897467792E-1,9.837695360E-1,2.670929730E-1
2.005411271E0,-4.836383164E-1,9.898779988E-1,2.648022771E-1
2.007764500E0,-4.761554301E-1,9.994988441E-1,2.648022771E-1
2.010117781E0,-4.724903405E-1,1.006676316E0,2.648022771E-1
2.012471010E0,-4.688252807E-1,1.012632012E0,2.661767006E-1
2.014824239E0,-4.653128982E-1,1.022252917E0,2.673983872E-1
2.017177469E0,-4.616478086E-1,1.031873703E0,2.686200738E-1
2.019530698E0,-4.592044353E-1,1.037982225E0,2.710634768E-1
2.021883927E0,-4.567610323E-1,1.045159698E0,2.722851634E-1
2.024237156E0,-4.520269632E-1,1.053558826E0,2.747285664E-1
2.026590385E0,-4.508052766E-1,1.063179612E0,2.747285664E-1
2.028943666E0,-4.459185004E-1,1.074022174E0,2.771719396E-1
2.031296896E0,-4.410317242E-1,1.084864736E0,2.761029601E-1
2.033650125E0,-4.385883212E-1,1.100441337E0,2.747285664E-1
2.036003354E0,-4.337015450E-1,1.112352848E0,2.736595869E-1
2.038356583E0,-4.262186885E-1,1.124417067E0,2.663294077E-1
2.040709812E0,-4.227063060E-1,1.137550354E0,2.651077211E-1
2.043063041E0,-4.188885093E-1,1.148392797E0,2.626643181E-1
2.045416323E0,-4.140017331E-1,1.161526084E0,2.577775419E-1
2.047769552E0,-4.091149569E-1,1.169925213E0,2.553341687E-1
2.050122781E0,-4.028537571E-1,1.178324342E0,2.504473627E-1
2.052476010E0,-3.967452943E-1,1.185501814E0,2.493783981E-1
2.054829239E0,-3.904841244E-1,1.192831993E0,2.469350100E-1
2.057182469E0,-3.817795515E-1,1.197566032E0,2.434226274E-1
2.059535698E0,-3.742966652E-1,1.200009465E0,2.409792393E-1
2.061888927E0,-3.668137789E-1,1.203674555E0,2.386885732E-1
2.064242208E0,-3.593308926E-1,1.207186937E0,2.350234836E-1
2.066595437E0,-3.520007432E-1,1.210852027E0,2.327328026E-1
2.068948666E0,-3.431434333E-1,1.210852027E0,2.292204350E-1
2.071301896E0,-3.356605768E-1,1.212073684E0,2.255553454E-1
2.073655125E0,-3.283303976E-1,1.214517117E0,2.244863659E-1
2.076008354E0,-3.220692277E-1,1.216807723E0,2.195995897E-1
2.078361583E0,-3.119902313E-1,1.218029380E0,2.136438340E-1
2.080714812E0,-3.045073450E-1,1.218029380E0,2.101314515E-1
2.083068094E0,-2.982461751E-1,1.220472813E0,2.052446753E-1
2.085421323E0,-2.895416021E-1,1.219251156E0,2.005106062E-1
2.087774552E0,-2.831276953E-1,1.219251156E0,1.933331639E-1
2.090127781E0,-2.768665254E-1,1.218029380E0,1.872246861E-1
2.092481010E0,-2.730487287E-1,1.218029380E0,1.786728203E-1
2.094834239E0,-2.641914487E-1,1.221541762E0,1.739387512E-1
2.097187469E0,-2.591519356E-1,1.221541762E0,1.690519750E-1
2.099540698E0,-2.553341687E-1,1.222763538E0,1.606528312E-1
2.101893979E0,-2.490729690E-1,1.223832488E0,1.533226669E-1
2.104247208E0,-2.464768738E-1,1.221389055E0,1.459924877E-1
2.106600437E0,-2.402156889E-1,1.223832488E0,1.400367320E-1
2.108953666E0,-2.350234836E-1,1.223832488E0,1.302631795E-1
2.111306896E0,-2.312056869E-1,1.221389055E0,1.253764033E-1
2.113660125E0,-2.273878902E-1,1.220167398E0,1.169772521E-1
2.116013354E0,-2.221956849E-1,1.218945742E0,1.072036922E-1
2.118366635E0,-2.208212912E-1,1.217723966E0,9.865183383E-2
2.120719864E0,-2.194468826E-1,1.216349602E0,8.887827396E-2
2.123073094E0,-2.166980654E-1,1.212684512E0,7.910472155E-2
2.125426323E0,-2.165453583E-1,1.211462855E0,7.055285573E-2
2.127779552E0,-2.176143378E-1,1.209019423E0,6.077930331E-2
2.130132781E0,-2.176143378E-1,1.207797766E0,5.467082933E-2
2.132486010E0,-2.186833173E-1,1.206575990E0,4.611896724E-2
2.134839291E0,-2.209739983E-1,1.205201626E0,3.756710514E-2
2.137192521E0,-2.244863659E-1,1.206423283E0,2.764083818E-2
2.139545750E0,-2.281514555E-1,1.205048919E0,1.908897609E-2
2.141898979E0,-2.316638231E-1,1.203827262E0,1.282779220E-2
2.144252208E0,-2.365505993E-1,1.204896212E0,4.275931045E-3
2.146605437E0,-2.463241518E-1,1.207186937E0,-4.581354558E-3
2.148958666E0,-2.536543310E-1,1.209630251E0,-1.313321572E-2
2.151311896E0,-2.597627938E-1,1.210699320E0,-2.305948362E-2
2.153665177E0,-2.669402659E-1,1.215433359E0,-3.298575059E-2
2.156018406E0,-2.754921019E-1,1.217723966E0,-4.291202128E-2
2.158371635E0,-2.840439677E-1,1.218793035E0,-5.161659420E-2
2.160724864E0,-2.939702570E-1,1.221083641E0,-5.909947306E-2
2.163078094E0,-3.037438095E-1,1.224596024E0,-6.902574003E-2
2.165431323E0,-3.135173619E-1,1.228108406E0,-7.895200700E-2
2.167784552E0,-3.194731176E-1,1.229177356E0,-8.765657991E-2
2.170137781E0,-3.268032968E-1,1.227955699E0,-9.636115283E-2
2.172491062E0,-3.353551328E-1,1.227802992E0,-1.075091213E-1
2.174844291E0,-3.413109183E-1,1.224137902E0,-1.174353883E-1
2.177197521E0,-3.474193811E-1,1.220472813E0,-1.259872466E-1
2.179550750E0,-3.545968235E-1,1.216807723E0,-1.346918195E-1
2.181903979E0,-3.594835997E-1,1.211920977E0,-1.444653720E-1
2.184257208E0,-3.666610718E-1,1.203369141E0,-1.531699449E-1
2.186610489E0,-3.713951409E-1,1.196038961E0,-1.592784226E-1
2.188963719E0,-3.762819171E-1,1.188861489E0,-1.679829955E-1
2.191316948E0,-3.771981895E-1,1.176797271E0,-1.753131598E-1
2.193670177E0,-3.808632791E-1,1.165954709E0,-1.801999360E-1
2.196023406E0,-3.843756318E-1,1.152668834E0,-1.863084137E-1
2.198376635E0,-3.854446113E-1,1.140604496E0,-1.899735034E-1
2.200729864E0,-3.865135908E-1,1.126249671E0,-1.947075576E-1
2.203083094E0,-3.863608837E-1,1.109451294E0,-1.959292591E-1
2.205436323E0,-3.874298632E-1,1.092653036E0,-2.032594234E-1
2.207789604E0,-3.859027624E-1,1.076923728E0,-2.067717910E-1
2.210142833E0,-3.857500553E-1,1.062568784E0,-2.104368806E-1
2.212496062E0,-3.855973184E-1,1.046992183E0,-2.128802687E-1
2.214849291E0,-3.866663277E-1,1.032484531E0,-2.176143378E-1
2.217202521E0,-3.878880143E-1,1.019351363E0,-2.188360244E-1
2.219555750E0,-3.901786804E-1,1.007287145E0,-2.225011140E-1
2.221908979E0,-3.900259733E-1,9.929322004E-1,-2.249445021E-1
2.224262260E0,-3.910949528E-1,9.820896983E-1,-2.286095917E-1
2.226615489E0,-3.935383558E-1,9.712471366E-1,-2.310529798E-1
2.228968719E0,-3.946073353E-1,9.579612017E-1,-2.357870489E-1
2.231321948E0,-3.968980014E-1,9.472714067E-1,-2.382304370E-1
2.233675177E0,-4.004103839E-1,9.352071285E-1,-2.420482337E-1
2.236028406E0,-4.027010500E-1,9.219212532E-1,-2.467822880E-1
2.238381635E0,-4.063661397E-1,9.075663090E-1,-2.467822880E-1
2.240734864E0,-4.124746025E-1,8.955020905E-1,-2.444916219E-1
2.243088146E0,-4.162923992E-1,8.811471462E-1,-2.396048307E-1
2.245441375E0,-4.199574888E-1,8.667922616E-1,-2.359397560E-1
2.247794604E0,-4.234698713E-1,8.512156606E-1,-2.370087355E-1
2.250147833E0,-4.233171642E-1,8.367080092E-1,-2.394521236E-1
2.252501062E0,-4.219427407E-1,8.199097514E-1,-2.431172132E-1
2.254854291E0,-4.205683470E-1,8.031114340E-1,-2.466295809E-1
2.257207521E0,-4.204156399E-1,7.875348330E-1,-2.502946556E-1
2.259560802E0,-4.201101959E-1,7.682931423E-1,-2.525853515E-1
2.261914031E0,-4.150707126E-1,7.527165413E-1,-2.573194206E-1
2.264267260E0,-4.123218954E-1,7.334748507E-1,-2.585411072E-1
2.266620489E0,-4.085040987E-1,7.178982496E-1,-2.583884001E-1
2.268973719E0,-4.046863019E-1,7.000309825E-1,-2.582356930E-1
2.271326948E0,-3.972034156E-1,6.820109487E-1,-2.568612695E-1
2.273680177E0,-3.883461356E-1,6.641436815E-1,-2.530434728E-1
2.276033458E0,-3.796415627E-1,6.485670805E-1,-2.515163720E-1
2.278386687E0,-3.671191931E-1,6.319214702E-1,-2.476985604E-1
2.280739916E0,-3.533751369E-1,6.116108298E-1,-2.449497581E-1
2.283093146E0,-3.371876776E-1,5.960342288E-1,-2.434226274E-1
2.285446375E0,-3.197785318E-1,5.769452453E-1,-2.418955117E-1
2.287799604E0,-2.985515893E-1,5.590779781E-1,-2.426590770E-1
2.290152833E0,-2.785463631E-1,5.375455618E-1,-2.423536479E-1
2.292506062E0,-2.573194206E-1,5.184566379E-1,-2.406738251E-1
2.294859344E0,-2.348707765E-1,4.957025647E-1,-2.415900975E-1
2.297212573E0,-2.136438340E-1,4.753918648E-1,-2.423536479E-1
2.299565802E0,-1.924168915E-1,4.515688419E-1,-2.408265322E-1
2.301919031E0,-1.699682474E-1,4.288147688E-1,-2.403683960E-1
2.304272260E0,-1.449235082E-1,4.049917459E-1,-2.411319613E-1
2.306625489E0,-1.211004704E-1,3.797942698E-1,-2.406738251E-1
2.308978719E0,-9.743013978E-2,3.523061574E-1,-2.402156889E-1
2.311332000E0,-7.742489129E-2,3.248180151E-1,-2.399102598E-1
2.313685229E0,-5.619794875E-2,2.985515893E-1,-2.370087355E-1
2.316038458E0,-3.619270027E-2,2.722851634E-1,-2.292204350E-1
2.318391687E0,-1.634016447E-2,2.437280566E-1,-2.228065431E-1
2.320744916E0,2.443389036E-3,2.150182426E-1,-2.162399292E-1
2.323098146E0,1.725643501E-2,1.852394342E-1,-2.061609477E-1
2.325451375E0,3.222219273E-2,1.577513069E-1,-1.973036677E-1
2.327804656E0,4.596625641E-2,1.302631795E-1,-1.882936656E-1
2.330157885E0,5.726693198E-2,9.910997003E-2,-1.808107942E-1
2.332511114E0,6.841489673E-2,6.566607952E-2,-1.705790907E-1
2.334864344E0,7.971556485E-2,3.588727489E-2,-1.617218107E-1
2.337217573E0,8.842013776E-2,2.290677279E-3,-1.530172378E-1
2.339570802E0,9.605573118E-2,-2.993151546E-2,-1.441599578E-1
2.341924031E0,9.987352788E-2,-6.230641901E-2,-1.354553849E-1
2.344277260E0,1.059819981E-1,-9.452861547E-2,-1.241547018E-1
2.346630541E0,1.073564067E-1,-1.269035190E-1,-1.130067408E-1
2.348983771E0,1.073564067E-1,-1.579040140E-1,-1.018587798E-1
2.351337000E0,1.085781008E-1,-1.841704547E-1,-8.826743066E-2
2.353690229E0,1.073564067E-1,-2.093679011E-1,-7.589777559E-2
2.356043458E0,1.061347127E-1,-2.356343269E-1,-6.368082762E-2
2.358396687E0,1.047603041E-1,-2.606790662E-1,-4.886778072E-2
2.360749916E0,1.021642014E-1,-2.811424434E-1,-3.649812192E-2
2.363103146E0,9.712471068E-2,-3.002314270E-1,-2.061609551E-2
2.365456427E0,9.208522737E-2,-3.144336343E-1,-5.955760833E-3
2.367809656E0,8.689302206E-2,-3.263451457E-1,8.704573847E-3
2.370162885E0,7.818844914E-2,-3.394783735E-1,2.092151903E-2
2.372516114E0,7.177454978E-2,-3.466558158E-1,3.558185324E-2
2.374869344E0,6.169557199E-2,-3.501681983E-1,4.886778072E-2
2.377222573E0,5.161659420E-2,-3.550549746E-1,5.848862603E-2
2.379575802E0,3.894151375E-2,-3.549022675E-1,7.421794534E-2
2.381929083E0,2.504473738E-2,-3.513898849E-1,8.383878320E-2
2.384282312E0,9.926267900E-3,-3.440597057E-1,9.590301663E-2
2.386635541E0,-5.192201585E-3,-3.393256664E-1,1.078145429E-1
2.388988771E0,-2.275406010E-2,-3.297048211E-1,1.160609797E-1
2.391342000E0,-3.649812192E-2,-3.225273490E-1,1.256818175E-1
2.393695229E0,-5.283828825E-2,-3.106158376E-1,1.339282542E-1
2.396048458E0,-7.040014863E-2,-2.973299026E-1,1.411057115E-1
2.398401739E0,-8.307522535E-2,-2.829749882E-1,1.481304616E-1
2.400754969E0,-9.941539168E-2,-2.722851634E-1,1.527118087E-1
2.403108198E0,-1.107160673E-1,-2.614426315E-1,1.586675793E-1
2.405461427E0,-1.220167428E-1,-2.495311052E-1,1.621799469E-1
2.407814656E0,-1.320957243E-1,-2.386885732E-1,1.644706279E-1
2.410167885E0,-1.433963925E-1,-2.290677279E-1,1.678302884E-1
2.412521114E0,-1.533226669E-1,-2.195995897E-1,1.713426560E-1
2.414874396E0,-1.621799469E-1,-2.075353563E-1,1.736333370E-1
2.417227625E0,-1.696628332E-1,-1.968455315E-1,1.734806150E-1
2.419580854E0,-1.785201132E-1,-1.849340051E-1,1.745496094E-1
2.421934083E0,-1.847812980E-1,-1.740914732E-1,1.756185889E-1
2.424287312E0,-1.885990947E-1,-1.644706279E-1,1.743968874E-1
2.426640541E0,-1.910424829E-1,-1.585148573E-1,1.718007922E-1
2.428993771E0,-1.960819662E-1,-1.466033459E-1,1.716480851E-1
2.431347000E0,-1.973036677E-1,-1.382041872E-1,1.667613089E-1
2.433700281E0,-1.985253543E-1,-1.322484314E-1,1.643179059E-1
2.436053510E0,-1.997470558E-1,-1.262926757E-1,1.592784226E-1
2.438406739E0,-1.983726472E-1,-1.203369126E-1,1.531699449E-1
2.440759969E0,-1.947075576E-1,-1.143811494E-1,1.470614821E-1
2.443113198E0,-1.895153672E-1,-1.131594554E-1,1.386623234E-1
2.445466427E0,-1.856975704E-1,-1.120904684E-1,1.313321590E-1
2.447819708E0,-1.806580722E-1,-1.143811494E-1,1.240019947E-1
2.450172937E0,-1.730224788E-1,-1.168245375E-1,1.156028435E-1
2.452526166E0,-1.653869003E-1,-1.192679256E-1,1.072036922E-1
2.454879396E0,-1.553079188E-1,-1.204896197E-1,9.865183383E-2
2.457232625E0,-1.490467340E-1,-1.241547018E-1,9.147437662E-2
2.459585854E0,-1.377460510E-1,-1.276670843E-1,8.429691941E-2
2.461939083E0,-1.288887709E-1,-1.313321590E-1,7.467607409E-2
2.464292312E0,-1.188097894E-1,-1.325538605E-1,6.872031838E-2
2.466645594E0,-1.075091213E-1,-1.374406368E-1,5.909947306E-2
2.468998823E0,-9.865183383E-2,-1.458397806E-1,5.070032179E-2
2.471352052E0,-8.735115826E-2,-1.517955512E-1,4.474456236E-2
2.473705281E0,-7.711946964E-2,-1.638597846E-1,3.634541109E-2
2.476058510E0,-6.581879407E-2,-1.769929975E-1,2.794626169E-2
2.478411739E0,-5.436540768E-2,-1.901262105E-1,2.214321308E-2
2.480764969E0,-4.306473210E-2,-2.044811249E-1,1.740914769E-2
2.483118250E0,-3.298575059E-2,-2.165453583E-1,1.145338640E-2
2.485471479E0,-2.412846684E-2,-2.321219593E-1,9.162709117E-3
2.487824708E0,-1.404948719E-2,-2.489202619E-1,4.581354558E-3
2.490177937E0,-3.817795310E-3,-2.669402659E-1,-1.527118147E-4
2.492531166E0,1.221694518E-3,-2.837385535E-1,-3.665083554E-3
2.494884396E0,8.857285604E-3,-3.003841341E-1,-8.399149403E-3
2.497237625E0,1.771457121E-2,-3.171824515E-1,-1.068982668E-2
2.499590906E0,2.290677279E-2,-3.352024257E-1,-1.298050396E-2
2.501944135E0,2.550287358E-2,-3.495573401E-1,-1.160609815E-2
2.504297364E0,2.794626169E-2,-3.675773442E-1,-7.941014133E-3
2.506650594E0,3.176405653E-2,-3.819322586E-1,-4.123218823E-3
2.509003823E0,3.420744836E-2,-3.985778391E-1,-3.054236295E-4
2.511357052E0,3.298575059E-2,-4.129327536E-1,8.246437646E-3
2.513710281E0,2.916795574E-2,-4.285093546E-1,1.801999472E-2
2.516063562E0,2.412846684E-2,-4.404208660E-1,2.779355086E-2
2.518416791E0,1.924168877E-2,-4.535540938E-1,3.756710514E-2
2.520770021E0,1.038440317E-2,-4.643966258E-1,5.100574717E-2
2.523123250E0,3.054236295E-4,-4.750864506E-1,6.322269142E-2
2.525476479E0,-1.099525020E-2,-4.822639227E-1,7.895200700E-2
2.527829708E0,-2.367033064E-2,-4.869979918E-1,9.345962852E-2
2.530182937E0,-4.001049697E-2,-4.882196784E-1,1.079672500E-1
2.532536219E0,-5.635065958E-2,-4.857762754E-1,1.198787764E-1
2.534889448E0,-7.513421029E-2,-4.857762754E-1,1.331647038E-1
2.537242677E0,-9.147437662E-2,-4.857762754E-1,1.462979168E-1
2.539595906E0,-1.090362370E-1,-4.796678126E-1,1.571404636E-1
2.541949135E0,-1.267508119E-1,-4.749337435E-1,1.714953631E-1
2.544302364E0,-1.443126649E-1,-4.737120569E-1,1.811162084E-1
2.546655594E0,-1.606528312E-1,-4.665345848E-1,1.918060333E-1
2.549008875E0,-1.782146841E-1,-4.628695250E-1,2.014268786E-1
2.551362104E0,-1.931804419E-1,-4.556920528E-1,2.084516287E-1
2.553715333E0,-2.095206082E-1,-4.485146105E-1,2.144073844E-1
2.556068562E0,-2.257080674E-1,-4.437805414E-1,2.202104330E-1
2.558421791E0,-2.420482337E-1,-4.343124032E-1,2.260134816E-1
2.560775021E0,-2.570139766E-1,-4.234698713E-1,2.283041626E-1
2.563128250E0,-2.732014358E-1,-4.091149569E-1,2.292204350E-1
2.565481531E0,-2.895416021E-1,-3.924693763E-1,2.289150059E-1
2.567834760E0,-3.045073450E-1,-3.756710589E-1,2.286095917E-1
2.570187989E0,-3.158080280E-1,-3.529170156E-1,2.270824611E-1
2.572541219E0,-3.283303976E-1,-3.290939629E-1,2.244863659E-1
2.574894448E0,-3.396310806E-1,-3.051182032E-1,2.217375487E-1
2.577247677E0,-3.483356535E-1,-2.788517773E-1,2.153236568E-1
2.579600906E0,-3.596363366E-1,-2.476985604E-1,2.125748396E-1
2.581954187E0,-3.684936166E-1,-2.177670449E-1,2.063136548E-1
2.584307416E0,-3.785725832E-1,-1.867665499E-1,1.986780763E-1
2.586660646E0,-3.836120665E-1,-1.531699449E-1,1.922641695E-1
2.589013875E0,-3.886515796E-1,-1.160609797E-1,1.847812980E-1
2.591367104E0,-3.950654566E-1,-7.666133344E-2,1.783674061E-1
2.593720333E0,-3.990359604E-1,-3.955236077E-2,1.721062213E-1
2.596073562E0,-4.016320705E-1,2.443389036E-3,1.632489264E-1
2.598426791E0,-4.056025743E-1,4.428642616E-2,1.557660550E-1
2.600780073E0,-4.094203711E-1,8.628217876E-2,1.505738497E-1
2.603133302E0,-4.109475017E-1,1.293469071E-1,1.443126649E-1
2.605486531E0,-4.098785222E-1,1.688992679E-1,1.380514801E-1
2.607839760E0,-4.114056230E-1,2.108950168E-1,1.342336833E-1
2.610192989E0,-4.089622498E-1,2.467822880E-1,1.291942000E-1
2.612546219E0,-4.042281806E-1,2.816005945E-1,1.278197914E-1
2.614899500E0,-4.020902216E-1,3.164188862E-1,1.265980899E-1
2.617252729E0,-3.949127495E-1,3.487937748E-1,1.265980899E-1
2.619605958E0,-3.863608837E-1,3.776563108E-1,1.253764033E-1
2.621959187E0,-3.765873313E-1,4.065188468E-1,1.265980899E-1
2.624312416E0,-3.681881726E-1,4.292729199E-1,1.290414780E-1
2.626665646E0,-3.597890437E-1,4.534013867E-1,1.327065676E-1
2.629018875E0,-3.487937748E-1,4.749337435E-1,1.365243644E-1
2.631372104E0,-3.377985358E-1,4.918847680E-1,1.426328421E-1
2.633725385E0,-3.255815804E-1,5.063923597E-1,1.464506239E-1
2.636078614E0,-3.133646548E-1,5.172349215E-1,1.539335102E-1
2.638431844E0,-2.999260128E-1,5.268557668E-1,1.589729935E-1
2.640785073E0,-2.864873707E-1,5.354076028E-1,1.688992679E-1
2.643138302E0,-2.718270421E-1,5.380037427E-1,1.789782494E-1
2.645491531E0,-2.596100867E-1,5.392253995E-1,1.901262105E-1
2.647844812E0,-2.473931462E-1,5.393781066E-1,1.976090819E-1
2.650198041E0,-2.362451702E-1,5.358657837E-1,2.064663768E-1
2.652551271E0,-2.228065431E-1,5.300627351E-1,2.163926363E-1
2.654904500E0,-2.118112892E-1,5.265503526E-1,2.264716178E-1
2.657257729E0,-1.994416267E-1,5.195255876E-1,2.351761907E-1
2.659610958E0,-1.921114624E-1,5.123481154E-1,2.414373755E-1
2.661964187E0,-1.821851879E-1,5.004366040E-1,2.501419485E-1
2.664317469E0,-1.736333370E-1,4.909684956E-1,2.589992285E-1
2.666670698E0,-1.624853760E-1,4.825693369E-1,2.652604282E-1
2.669023927E0,-1.525591016E-1,4.718795121E-1,2.702999115E-1
2.671377156E0,-1.414111406E-1,4.624113739E-1,2.767138183E-1
2.673730385E0,-1.339282542E-1,4.552339315E-1,2.791571915E-1
2.676083614E0,-1.214058921E-1,4.468347728E-1,2.782409191E-1
2.678436844E0,-1.140757278E-1,4.433223903E-1,2.783936262E-1
2.680790125E0,-1.052184403E-1,4.410317242E-1,2.759502530E-1
2.683143354E0,-9.651386738E-2,4.385883212E-1,2.699944973E-1
2.685496583E0,-8.903098851E-2,4.398100376E-1,2.677038014E-1
2.687849812E0,-8.399149776E-2,4.408790171E-1,2.615953386E-1
2.690203041E0,-7.895200700E-2,4.480564594E-1,2.554868758E-1
2.692556271E0,-7.391251624E-2,4.529432356E-1,2.458660156E-1
2.694909500E0,-7.131642103E-2,4.599680007E-1,2.373141646E-1
2.697262729E0,-6.872031838E-2,4.683671296E-1,2.286095917E-1
2.699616010E0,-6.490252167E-2,4.767662883E-1,2.200577259E-1
2.701969239E0,-6.230641901E-2,4.862344265E-1,2.090624720E-1
2.704322469E0,-5.986303091E-2,4.958552718E-1,2.005106062E-1
2.706675698E0,-5.848862603E-2,5.041016936E-1,1.895153672E-1
2.709028927E0,-5.711421743E-2,5.184566379E-1,1.771457046E-1
2.711382156E0,-5.818320066E-2,5.315898061E-1,1.612636745E-1
2.713735437E0,-5.803048983E-2,5.435013771E-1,1.488940120E-1
2.716088666E0,-6.047387794E-2,5.577035546E-1,1.354553849E-1
2.718441896E0,-6.276455522E-2,5.732801557E-1,1.206423342E-1
2.720795125E0,-6.261184067E-2,5.899257660E-1,1.058292910E-1
2.723148354E0,-6.505523622E-2,6.077930331E-1,9.223793447E-2
2.725501583E0,-6.612421572E-2,6.256603003E-1,7.742489129E-2
2.727854812E0,-6.734590977E-2,6.435275674E-1,6.398624927E-2
2.730208094E0,-6.841489673E-2,6.613948941E-1,4.672981426E-2
2.732561323E0,-6.581879407E-2,6.804838181E-1,3.313846514E-2
2.734914552E0,-6.062658876E-2,7.007945180E-1,1.481304597E-2
2.737267781E0,-5.925218388E-2,7.151494026E-1,-2.290677279E-3
2.739621010E0,-5.421269313E-2,7.342383862E-1,-1.710372418E-2
2.741974239E0,-4.779879749E-2,7.473716140E-1,-3.420744836E-2
2.744327469E0,-4.275930673E-2,7.627955079E-1,-4.886778072E-2
2.746680750E0,-3.634541109E-2,7.795938253E-1,-6.597150117E-2
2.749033979E0,-2.886253223E-2,7.950177193E-1,-7.941014320E-2
2.751387208E0,-2.244863659E-2,8.118160367E-1,-9.529217333E-2
2.753740437E0,-1.236965694E-2,8.249492049E-1,-1.111742035E-1
2.756093666E0,-2.290677279E-3,8.380824327E-1,-1.244601309E-1
2.758446896E0,9.009997360E-3,8.499939442E-1,-1.378987730E-1
2.760800021E0,2.031067200E-2,8.596147895E-1,-1.548497826E-1
2.763200177E0,3.405473381E-2,8.678612709E-1,-1.681357026E-1
2.765600333E0,4.428642616E-2,8.750386834E-1,-1.840177327E-1
2.768000489E0,5.803048983E-2,8.797727823E-1,-1.924168915E-1
2.770400854E0,8.429691941E-2,8.906152844E-1,-2.177670449E-1
2.772801114E0,9.697200358E-2,8.941276670E-1,-2.273878902E-1
2.775201375E0,1.107160673E-1,8.990144730E-1,-2.370087355E-1
2.777601687E0,1.230857223E-1,9.013051391E-1,-2.429644912E-1
2.780001948E0,1.392731816E-1,9.061918855E-1,-2.487675399E-1
2.782402208E0,1.531699449E-1,9.074136019E-1,-2.571666837E-1
2.784802469E0,1.679829955E-1,9.074136019E-1,-2.619007528E-1
2.787202729E0,1.829487532E-1,9.074136019E-1,-2.654131353E-1
2.789602989E0,1.979145110E-1,9.086353183E-1,-2.699944973E-1
2.792003250E0,2.104368806E-1,9.075663090E-1,-2.735068500E-1
2.794403510E0,2.254026383E-1,9.075663090E-1,-2.770192325E-1
2.796803823E0,2.389939874E-1,9.063445926E-1,-2.768665254E-1
2.799204083E0,2.564031482E-1,9.040539265E-1,-2.814478874E-1
2.801604344E0,2.701472044E-1,9.005415440E-1,-2.812951505E-1
2.804004604E0,2.849602401E-1,8.958075047E-1,-2.785463631E-1
2.806404864E0,2.987042964E-1,8.886300325E-1,-2.796153426E-1
2.808805125E0,3.148917556E-1,8.814526200E-1,-2.805316150E-1
2.811205385E0,3.298575282E-1,8.707627654E-1,-2.802261710E-1
2.813605698E0,3.436015844E-1,8.600729704E-1,-2.788517773E-1
2.816005958E0,3.571929336E-1,8.493831158E-1,-2.785463631E-1
2.818406219E0,3.709369898E-1,8.397622705E-1,-2.796153426E-1
2.820806479E0,3.846810758E-1,8.266290426E-1,-2.793098986E-1
2.823206739E0,3.959817290E-1,8.122741580E-1,-2.791571915E-1
2.825607000E0,4.085040987E-1,7.991409302E-1,-2.788517773E-1
2.828007260E0,4.210264683E-1,7.835643291E-1,-2.835858464E-1
2.830407573E0,4.337015450E-1,7.656970620E-1,-2.857238054E-1
2.832807833E0,4.462239146E-1,7.488987446E-1,-2.890834510E-1
2.835208094E0,4.576773047E-1,7.296570539E-1,-2.950392365E-1
2.837608354E0,4.677563012E-1,7.105680704E-1,-2.997733057E-1
2.840008614E0,4.766135812E-1,6.901046634E-1,-3.043546379E-1
2.842408875E0,4.856235683E-1,6.685723066E-1,-3.151971996E-1
2.844809187E0,4.934118688E-1,6.456655264E-1,-3.235963285E-1
2.847209448E0,5.012001991E-1,6.229115129E-1,-3.332171738E-1
2.849609708E0,5.076140761E-1,6.000047326E-1,-3.428380191E-1
2.852009969E0,5.141806602E-1,5.748072863E-1,-3.536805511E-1
2.854410229E0,5.183038712E-1,5.483881235E-1,-3.633013964E-1
2.856810489E0,5.222744346E-1,5.244123936E-1,-3.717005551E-1
2.859210750E0,5.227325559E-1,5.002838969E-1,-3.849864900E-1
2.861611062E0,5.218162537E-1,4.773771465E-1,-3.935383558E-1
2.864011323E0,5.221216679E-1,4.558447599E-1,-4.045335948E-1
2.866411583E0,5.187620521E-1,4.341596961E-1,-4.165978432E-1
2.868811844E0,5.154023767E-1,4.135435820E-1,-4.275930822E-1
2.871212104E0,5.082249045E-1,3.955236077E-1,-4.399627447E-1
2.873612364E0,5.024218559E-1,3.773508966E-1,-4.534013867E-1
2.876012625E0,4.964661002E-1,3.593308926E-1,-4.643966258E-1
2.878412885E0,4.880669713E-1,3.423798978E-1,-4.731011987E-1
2.880813198E0,4.810422063E-1,3.268032968E-1,-4.840964675E-1
2.883168458E0,4.738647640E-1,3.122956753E-1,-4.964661002E-1
2.885521687E0,4.628695250E-1,2.977880239E-1,-5.063923597E-1
2.887874916E0,4.570664763E-1,2.832804024E-1,-5.161659122E-1
2.890228146E0,4.474456310E-1,2.663294077E-1,-5.285356045E-1
2.892581375E0,4.390464723E-1,2.530434728E-1,-5.407525301E-1
2.894934656E0,4.280512035E-1,2.385358512E-1,-5.505260825E-1
2.897287885E0,4.172086716E-1,2.264716178E-1,-5.604523420E-1
2.899641114E0,4.075878263E-1,2.119639963E-1,-5.703786016E-1
2.901994344E0,3.991886973E-1,2.009687424E-1,-5.813738704E-1
2.904347573E0,3.920112252E-1,1.876828223E-1,-5.925218463E-1
2.906700802E0,3.860554695E-1,1.792836636E-1,-6.047387719E-1
2.909054031E0,3.800997138E-1,1.682884246E-1,-6.158867478E-1
2.911407312E0,3.753656447E-1,1.574458778E-1,-6.281036735E-1
2.913760541E0,3.694098890E-1,1.488940120E-1,-6.392516494E-1
2.916113771E0,3.684936166E-1,1.404948682E-1,-6.514685750E-1
2.918467000E0,3.662029207E-1,1.343863904E-1,-6.649072170E-1
2.920820229E0,3.689517379E-1,1.270562261E-1,-6.783458591E-1
2.923173458E0,3.668137789E-1,1.186570823E-1,-6.930062175E-1
2.925526687E0,3.707842827E-1,1.125486046E-1,-7.075138092E-1
2.927879969E0,3.749074936E-1,1.052184403E-1,-7.221741676E-1
2.930233198E0,3.800997138E-1,1.015533581E-1,-7.404996157E-1
2.932586427E0,3.828485310E-1,1.001789495E-1,-7.563816309E-1
2.934939656E0,3.855973184E-1,9.773556143E-2,-7.734853625E-1
2.937292885E0,3.933856487E-1,9.773556143E-2,-7.892146707E-1
2.939646114E0,3.997995257E-1,9.636115283E-2,-8.063184023E-1
2.941999344E0,4.100312293E-1,9.391776472E-2,-8.232693672E-1
2.944352625E0,4.165978432E-1,9.147437662E-2,-8.391514421E-1
2.946705854E0,4.254551232E-1,8.658760041E-2,-8.524373770E-1
2.949059083E0,4.318690002E-1,8.170082420E-2,-8.632798791E-1
2.951412312E0,4.370612204E-1,7.085828483E-2,-8.730534315E-1
2.953765541E0,4.410317242E-1,6.245913357E-2,-8.851176500E-1
2.956118771E0,4.462239146E-1,5.161659420E-2,-8.924478292E-1
2.958472000E0,4.488200247E-1,4.077405483E-2,-8.984035850E-1
2.960825281E0,4.515688419E-1,2.886253223E-2,-9.008470178E-1
2.963178510E0,4.527905285E-1,1.924168877E-2,-8.994725943E-1
2.965531739E0,4.503471553E-1,7.177455351E-3,-8.970292211E-1
2.967884969E0,4.491254389E-1,-3.512371797E-3,-8.921424150E-1
2.970238198E0,4.466820657E-1,-1.664558798E-2,-8.872556686E-1
2.972591427E0,4.428642690E-1,-2.748812735E-2,-8.799254894E-1
2.974944656E0,4.378247857E-1,-4.306473210E-2,-8.689302206E-1
2.977297937E0,4.341596961E-1,-6.215370819E-2,-8.577822447E-1
2.979651166E0,4.303418994E-1,-8.124268800E-2,-8.455653191E-1
2.982004396E0,4.253024161E-1,-9.559759498E-2,-8.321266770E-1
2.984357625E0,4.213318825E-1,-1.110214889E-1,-8.162446618E-1
2.986710854E0,4.136963189E-1,-1.253764033E-1,-8.003626466E-1
2.989064083E0,4.074351192E-1,-1.409530044E-1,-7.869240046E-1
2.991417312E0,4.010212123E-1,-1.504211426E-1,-7.722636461E-1
2.993770594E0,3.972034156E-1,-1.611109674E-1,-7.563816309E-1
2.996123823E0,3.932329118E-1,-1.707318127E-1,-7.429429889E-1
2.998477052E0,3.869717419E-1,-1.801999360E-1,-7.295043468E-1
3.000830281E0,3.831539452E-1,-1.896680743E-1,-7.185090780E-1
3.003183510E0,3.779617548E-1,-1.980672181E-1,-7.050704360E-1
3.005536739E0,3.715478480E-1,-2.015796006E-1,-6.928535104E-1
3.007890021E0,3.652866483E-1,-2.075353563E-1,-6.843016148E-1
3.010243250E0,3.590254784E-1,-2.099787444E-1,-6.771242023E-1
3.012596479E0,3.526115716E-1,-2.122694254E-1,-6.673506498E-1
3.014949708E0,3.439069986E-1,-2.182251811E-1,-6.577298045E-1
3.017302937E0,3.364241421E-1,-2.194468826E-1,-6.516213417E-1
3.019656166E0,3.287885487E-1,-2.229592502E-1,-6.407787800E-1
3.022009396E0,3.199312389E-1,-2.229592502E-1,-6.310052276E-1
3.024362677E0,3.074088693E-1,-2.254026383E-1,-6.226060390E-1
3.026715906E0,2.961082160E-1,-2.278460264E-1,-6.154286265E-1
3.029069135E0,2.835858464E-1,-2.301367074E-1,-6.058077812E-1
3.031422364E0,2.698417902E-1,-2.301367074E-1,-5.949652195E-1
3.033775594E0,2.560977042E-1,-2.278460264E-1,-5.916055441E-1
3.036128823E0,2.411319613E-1,-2.278460264E-1,-5.856497884E-1
3.038482052E0,2.235700935E-1,-2.231119573E-1,-5.798467398E-1
3.040835333E0,2.086043358E-1,-2.182251811E-1,-5.751127005E-1
3.043188562E0,1.936385781E-1,-2.159345001E-1,-5.693096519E-1
3.045541791E0,1.762294322E-1,-2.124221325E-1,-5.670189857E-1
3.047895021E0,1.635543555E-1,-2.063136548E-1,-5.610632300E-1
3.050248250E0,1.449235082E-1,-2.005106062E-1,-5.577035546E-1
3.052601479E0,1.275143623E-1,-1.921114624E-1,-5.555655956E-1
3.054954708E0,1.099525094E-1,-1.801999360E-1,-5.509842038E-1
3.057307989E0,9.498675168E-2,-1.705790907E-1,-5.488462448E-1
3.059661219E0,7.742489129E-2,-1.598892659E-1,-5.453338623E-1
3.062014448E0,6.123743951E-2,-1.443126649E-1,-5.419742465E-1
3.064367677E0,4.489727318E-2,-1.275143623E-1,-5.398362875E-1
3.066720906E0,3.237490356E-2,-1.131594554E-1,-5.364766121E-1
3.069074135E0,1.725643501E-2,-9.407047927E-2,-5.367820263E-1
3.071427364E0,1.068982761E-3,-7.498150319E-2,-5.334223509E-1
3.073780646E0,-1.404948719E-2,-5.344913527E-2,-5.312843919E-1
3.076133875E0,-2.916795574E-2,-3.298575059E-2,-5.277720094E-1
3.078487104E0,-4.291202128E-2,-1.145338640E-2,-5.268557668E-1
3.080840333E0,-5.558710173E-2,6.413896102E-3,-5.247178078E-1
3.083193562E0,-7.055285573E-2,2.672456764E-2,-5.213581324E-1
3.085546791E0,-8.444963396E-2,4.718795046E-2,-5.178457499E-1
3.087900021E0,-9.590301663E-2,6.627693027E-2,-5.132644176E-1
3.090253302E0,-1.059819981E-1,8.674030751E-2,-5.085303187E-1
3.092606531E0,-1.162136942E-1,1.035386100E-1,-5.002838969E-1
3.094959760E0,-1.238492802E-1,1.191152185E-1,-4.920374751E-1
3.097312989E0,-1.278197914E-1,1.334701329E-1,-4.847072959E-1
3.099666219E0,-1.354553849E-1,1.467560530E-1,-4.787515402E-1
3.102019448E0,-1.394258887E-1,1.575985998E-1,-4.679090083E-1
3.104372729E0,-1.446180940E-1,1.696628332E-1,-4.581354558E-1
3.106725958E0,-1.485885978E-1,1.805053651E-1,-4.460712075E-1
3.109079187E0,-1.525591016E-1,1.913478971E-1,-4.375193417E-1
3.111432416E0,-1.527118087E-1,1.985253543E-1,-4.265241027E-1
3.113785646E0,-1.554606259E-1,2.058555335E-1,-4.156815708E-1
3.116138875E0,-1.557660550E-1,2.095206082E-1,-4.020902216E-1
3.118492104E0,-1.559187621E-1,2.144073844E-1,-3.910949528E-1
3.120845385E0,-1.550024897E-1,2.168507725E-1,-3.788780272E-1
3.123198614E0,-1.514901221E-1,2.170034945E-1,-3.666610718E-1
3.125551844E0,-1.504211426E-1,2.170034945E-1,-3.542914093E-1
3.127905073E0,-1.493521482E-1,2.159345001E-1,-3.432961702E-1
3.130258302E0,-1.469087601E-1,2.112004459E-1,-3.335226178E-1
3.132611531E0,-1.446180940E-1,2.052446753E-1,-3.223746419E-1
3.134964760E0,-1.423274130E-1,1.957765520E-1,-3.087832928E-1
3.137318041E0,-1.374406368E-1,1.875301152E-1,-2.977880239E-1
3.139671271E0,-1.337755471E-1,1.780619770E-1,-2.866400778E-1
3.142024500E0,-1.314848661E-1,1.673721522E-1,-2.754921019E-1
3.144377729E0,-1.278197914E-1,1.530172378E-1,-2.631224692E-1
3.146730958E0,-1.279724985E-1,1.423274130E-1,-2.521272004E-1
3.149084187E0,-1.267508119E-1,1.267508119E-1,-2.409792393E-1
3.151437416E0,-1.256818175E-1,1.113269106E-1,-2.263189107E-1
3.153790698E0,-1.258345395E-1,9.819369763E-2,-2.139492482E-1
3.156143927E0,-1.272089481E-1,8.506047726E-2,-2.005106062E-1
3.158497156E0,-1.272089481E-1,7.192726433E-2,-1.893626451E-1
3.160850385E0,-1.273616552E-1,5.650337040E-2,-1.747023165E-1
3.163203614E0,-1.287360638E-1,4.337015375E-2,-1.647760421E-1
3.165556844E0,-1.288887709E-1,3.268032894E-2,-1.488940120E-1
3.167910125E0,-1.327065676E-1,2.076880634E-2,-1.354553849E-1
3.170263354E0,-1.328592747E-1,1.007897966E-2,-1.218640283E-1
3.172616583E0,-1.354553849E-1,-7.635590737E-4,-1.096470803E-1
3.174969812E0,-1.394258887E-1,-9.009997360E-3,-9.498675168E-2
3.177323041E0,-1.382041872E-1,-1.847812906E-2,-8.139539510E-2
3.179676271E0,-1.433963925E-1,-2.687728032E-2,-6.917845458E-2
3.182029500E0,-1.447708011E-1,-3.390202299E-2,-5.573981255E-2
3.184382781E0,-1.473668963E-1,-4.230117425E-2,-4.352286831E-2
3.186736010E0,-1.475196183E-1,-5.054761097E-2,-3.008422814E-2
3.189089239E0,-1.476723254E-1,-5.772506446E-2,-1.893626526E-2
3.191442469E0,-1.466033459E-1,-6.841489673E-2,-9.162709117E-3
3.193795698E0,-1.453816444E-1,-7.681404054E-2,-1.679830020E-3
3.196148927E0,-1.455343664E-1,-8.383878320E-2,8.093725890E-3
3.198502208E0,-1.443126649E-1,-9.223793447E-2,1.801999472E-2
3.200855437E0,-1.456870735E-1,-1.029277667E-1,2.535016090E-2
3.203208666E0,-1.456870735E-1,-1.101052165E-1,3.268032894E-2
3.205561896E0,-1.470614821E-1,-1.185043678E-1,4.245388508E-2
3.207915125E0,-1.470614821E-1,-1.267508119E-1,5.238015205E-2
3.210268354E0,-1.472141892E-1,-1.351499557E-1,6.093201414E-2
3.212621583E0,-1.498102844E-1,-1.423274130E-1,6.826218218E-2
3.214974812E0,-1.524063945E-1,-1.505738497E-1,7.925742865E-2
3.217328094E0,-1.536280811E-1,-1.589729935E-1,8.780929446E-2
3.219681323E0,-1.598892659E-1,-1.661504507E-1,9.636115283E-2
3.222034552E0,-1.638597846E-1,-1.708845198E-1,1.073564067E-1
3.224387781E0,-1.664558798E-1,-1.791309565E-1,1.183516532E-1
3.226741010E0,-1.664558798E-1,-1.850867122E-1,1.244601309E-1
3.229094239E0,-1.666085869E-1,-1.899735034E-1,1.319430023E-1
3.231447521E0,-1.666085869E-1,-1.947075576E-1,1.380514801E-1
3.233800750E0,-1.692046970E-1,-1.994416267E-1,1.417165697E-1
3.236153979E0,-1.679829955E-1,-2.029540092E-1,1.466033459E-1
3.238507208E0,-1.692046970E-1,-2.078407854E-1,1.490467340E-1
3.240860437E0,-1.692046970E-1,-2.125748396E-1,1.539335102E-1
3.243213666E0,-1.693574041E-1,-2.185306102E-1,1.614163816E-1
3.245566896E0,-1.705790907E-1,-2.269297540E-1,1.663031727E-1
3.247920177E0,-1.743968874E-1,-2.328855246E-1,1.724116355E-1
3.250273406E0,-1.743968874E-1,-2.399102598E-1,1.797417998E-1
3.252626635E0,-1.745496094E-1,-2.495311052E-1,1.870719790E-1
3.254979864E0,-1.769929975E-1,-2.591519356E-1,1.956238300E-1
3.257333094E0,-1.769929975E-1,-2.686200738E-1,2.006633282E-1
3.259686323E0,-1.795890927E-1,-2.829749882E-1,2.055501044E-1
3.262039604E0,-1.794363856E-1,-2.973299026E-1,2.116585821E-1
3.264392833E0,-1.806580722E-1,-3.116848171E-1,2.166980654E-1
3.266746062E0,-1.820324808E-1,-3.260397315E-1,2.228065431E-1
3.269099291E0,-1.832541823E-1,-3.403946459E-1,2.276933193E-1
3.271452521E0,-1.806580722E-1,-3.571929336E-1,2.339545041E-1
3.273805750E0,-1.794363856E-1,-3.715478480E-1,2.377723008E-1
3.276158979E0,-1.780619770E-1,-3.871244490E-1,2.389939874E-1
3.278512260E0,-1.766875684E-1,-3.990359604E-1,2.391466945E-1
3.280865489E0,-1.765348613E-1,-4.135435820E-1,2.330382317E-1
3.283218719E0,-1.739387512E-1,-4.256078303E-1,2.281514555E-1
3.285571948E0,-1.724116355E-1,-4.387410581E-1,2.221956849E-1
3.287925177E0,-1.710372269E-1,-4.520269632E-1,2.148655206E-1
3.290278406E0,-1.682884246E-1,-4.616478086E-1,2.076880634E-1
3.292631635E0,-1.656923145E-1,-4.712686539E-1,1.979145110E-1
3.294984916E0,-1.605001241E-1,-4.784461260E-1,1.907370538E-1
3.297338146E0,-1.577513069E-1,-4.869979918E-1,1.797417998E-1
3.299691375E0,-1.513374150E-1,-4.941754341E-1,1.699682474E-1
3.302044604E0,-1.449235082E-1,-5.025745630E-1,1.603474021E-1
3.304397833E0,-1.372879148E-1,-5.099047422E-1,1.482831687E-1
3.306751062E0,-1.319430023E-1,-5.195255876E-1,1.311794519E-1
3.309104291E0,-1.279724985E-1,-5.305208564E-1,1.166718230E-1
3.311457573E0,-1.189625040E-1,-5.376983285E-1,1.033858955E-1
3.313810802E0,-1.123958975E-1,-5.485408306E-1,8.506047726E-2
3.316164031E0,-1.070509851E-1,-5.570927262E-1,6.810946763E-2
3.318517260E0,-9.926267713E-2,-5.632011890E-1,5.100574717E-2
3.320870489E0,-9.391776472E-2,-5.728220344E-1,3.161134571E-2
3.323223719E0,-8.612946421E-2,-5.789304972E-1,8.399149403E-3
3.325577000E0,-7.711946964E-2,-5.825955868E-1,-8.551862091E-3
3.327930229E0,-6.688777357E-2,-5.851916671E-1,-2.550287358E-2
3.330283458E0,-5.665608495E-2,-5.851916671E-1,-4.260659590E-2
3.332636687E0,-4.398100078E-2,-5.864133835E-1,-5.711421743E-2
3.334989916E0,-3.390202299E-2,-5.865660906E-1,-7.162184268E-2
3.337343146E0,-2.489202656E-2,-5.841227174E-1,-8.735115826E-2
3.339696427E0,-1.236965694E-2,-5.806103349E-1,-9.941539168E-2
3.342049656E0,-2.443389036E-3,-5.734328628E-1,-1.079672500E-1
3.344402885E0,7.635590620E-3,-5.650337338E-1,-1.151447073E-1
3.346756114E0,1.634016447E-2,-5.566345453E-1,-1.224748790E-1
3.349109344E0,2.504473738E-2,-5.422796607E-1,-1.272089481E-1
3.351462573E0,3.359659761E-2,-5.277720094E-1,-1.296523362E-1
3.353815802E0,3.970507160E-2,-5.121954083E-1,-1.320957243E-1
3.356169083E0,4.459185153E-2,-4.941754341E-1,-1.320957243E-1
3.358522312E0,4.947862774E-2,-4.750864506E-1,-1.345391124E-1
3.360875541E0,5.543438718E-2,-4.498890042E-1,-1.345391124E-1
3.363228771E0,6.016845629E-2,-4.257605374E-1,-1.320957243E-1
3.365582000E0,6.749862432E-2,-4.042281806E-1,-1.320957243E-1
3.367935229E0,7.101099193E-2,-3.813214004E-1,-1.296523362E-1
3.370288458E0,7.818844914E-2,-3.585673273E-1,-1.284306347E-1
3.372641739E0,8.185353130E-2,-3.368822634E-1,-1.259872466E-1
3.374994969E0,8.903098851E-2,-3.165715933E-1,-1.247655526E-1
3.377348198E0,9.636115283E-2,-2.983988822E-1,-1.235438585E-1
3.379701427E0,1.024696305E-1,-2.852656841E-1,-1.223221645E-1
3.382054656E0,1.096470803E-1,-2.695363462E-1,-1.185043678E-1
3.384407885E0,1.194206402E-1,-2.551814318E-1,-1.160609797E-1
3.386761114E0,1.255291104E-1,-2.418955117E-1,-1.097997949E-1
3.389114396E0,1.327065676E-1,-2.310529798E-1,-1.024696305E-1
3.391467625E0,1.386623234E-1,-2.212794125E-1,-9.009996802E-2
3.393820854E0,1.433963925E-1,-2.163926363E-1,-7.910472155E-2
3.396174083E0,1.469087601E-1,-2.079934925E-1,-6.566607952E-2
3.398527312E0,1.514901221E-1,-2.041756958E-1,-5.085303262E-2
3.400880541E0,1.562241912E-1,-2.005106062E-1,-3.359659761E-2
3.403233823E0,1.595838517E-1,-1.991362125E-1,-1.649287529E-2
3.405587052E0,1.629435122E-1,-1.977618039E-1,3.206948051E-3
3.407940281E0,1.676775664E-1,-2.000524700E-1,2.412846684E-2
3.410293510E0,1.734806150E-1,-2.034121305E-1,4.367557913E-2
3.412646739E0,1.756185889E-1,-2.081461996E-1,6.581879407E-2
3.414999969E0,1.815743446E-1,-2.127275616E-1,8.429691941E-2
3.417353198E0,1.887518018E-1,-2.209739983E-1,1.027750522E-1
3.419706479E0,1.960819662E-1,-2.316638231E-1,1.212531775E-1
3.422059708E0,2.044811249E-1,-2.434226274E-1,1.386623234E-1
3.424412937E0,2.118112892E-1,-2.565558553E-1,1.559187621E-1
3.426766166E0,2.191414535E-1,-2.707580328E-1,1.695101112E-1
3.429119396E0,2.252499312E-1,-2.851129472E-1,1.818797737E-1
3.431472625E0,2.325800955E-1,-3.005368412E-1,1.956238300E-1
3.433825906E0,2.385358512E-1,-3.159607351E-1,2.092151791E-1
3.436179135E0,2.422009408E-1,-3.339807391E-1,2.240282297E-1
3.438532364E0,2.432699203E-1,-3.481829464E-1,2.412846684E-1
3.440885594E0,2.455606014E-1,-3.625378609E-1,2.547233105E-1
3.443238823E0,2.502946556E-1,-3.767400384E-1,2.745758295E-1
3.445592052E0,2.525853515E-1,-3.909422457E-1,2.929012477E-1
3.447945281E0,2.574721277E-1,-4.016320705E-1,3.101576865E-1
3.450298562E0,2.597627938E-1,-4.135435820E-1,3.274141252E-1
3.452651791E0,2.643441558E-1,-4.230117202E-1,3.458922505E-1
3.455005021E0,2.692309320E-1,-4.359922409E-1,3.619270027E-1
3.457358250E0,2.739650011E-1,-4.466820657E-1,3.767400384E-1
3.459711479E0,2.750339806E-1,-4.585935771E-1,3.927747905E-1
3.462064708E0,2.761029601E-1,-4.680617154E-1,4.049917459E-1
3.464417989E0,2.747285664E-1,-4.787515402E-1,4.210264683E-1
3.466771219E0,2.721324563E-1,-4.894413650E-1,4.344651103E-1
3.469124448E0,2.683146596E-1,-5.001311898E-1,4.491254389E-1
3.471477677E0,2.631224692E-1,-5.097520351E-1,4.637857676E-1
3.473830906E0,2.542651594E-1,-5.179984570E-1,4.808894992E-1
3.476184135E0,2.466295809E-1,-5.299099684E-1,4.966188073E-1
3.478537364E0,2.377723008E-1,-5.395308137E-1,5.125008225E-1
3.480890646E0,2.275405973E-1,-5.489989519E-1,5.283828974E-1
3.483243875E0,2.162399292E-1,-5.609105229E-1,5.428904891E-1
3.485597104E0,2.049392611E-1,-5.705313683E-1,5.561764240E-1
3.487950333E0,1.962346882E-1,-5.824428797E-1,5.696150661E-1
3.490303562E0,1.837123185E-1,-5.943543911E-1,5.804576278E-1
3.492656791E0,1.724116355E-1,-6.076403260E-1,5.914528370E-1
3.495010073E0,1.598892659E-1,-6.207735538E-1,6.022953987E-1
3.497363302E0,1.450762302E-1,-6.363501549E-1,6.106945276E-1
3.499716531E0,1.313321590E-1,-6.519267559E-1,6.204680800E-1
3.502069760E0,1.139230132E-1,-6.711684465E-1,6.288672686E-1
3.504422989E0,9.895725548E-2,-6.843016148E-1,6.397097707E-1
3.506776219E0,8.047912270E-2,-7.035433054E-1,6.468872428E-1
3.509129448E0,6.551336497E-2,-7.262973785E-1,6.552863717E-1
3.511482729E0,4.703523964E-2,-7.455390692E-1,6.612421870E-1
3.513835958E0,2.962609194E-2,-7.623373866E-1,6.659762263E-1
3.516189187E0,1.236965694E-2,-7.815790772E-1,6.694886088E-1
3.518542416E0,-3.512371797E-3,-8.032641411E-1,6.705575585E-1
3.520895646E0,-2.321219631E-2,-8.225058317E-1,6.702521443E-1
3.523248875E0,-3.680354729E-2,-8.441908956E-1,6.690304875E-1
3.525602156E0,-5.146388337E-2,-8.658760190E-1,6.664343476E-1
3.527955385E0,-6.490252167E-2,-8.887827396E-1,6.626165509E-1
3.530308614E0,-7.574506104E-2,-9.115368128E-1,6.577298045E-1
3.532661844E0,-8.780929446E-2,-9.344435930E-1,6.514685750E-1
3.535015073E0,-9.880454093E-2,-9.536852837E-1,6.452074051E-1
3.537368302E0,-1.110214889E-1,-9.730796814E-1,6.415423155E-1
3.539721583E0,-1.206423342E-1,-9.923213720E-1,6.328377724E-1
3.542074812E0,-1.302631795E-1,-1.011563063E0,6.229115129E-1
3.544428041E0,-1.398840249E-1,-1.030804753E0,6.168029904E-1
3.546781271E0,-1.508792788E-1,-1.047755718E0,6.068767309E-1
3.549134500E0,-1.617218107E-1,-1.065775752E0,5.983248949E-1
3.551487729E0,-1.701209545E-1,-1.079061627E0,5.896202922E-1
3.553840958E0,-1.797417998E-1,-1.090056896E0,5.784723759E-1
3.556194239E0,-1.870719790E-1,-1.098456025E0,5.723638535E-1
3.558547469E0,-1.919587553E-1,-1.102121115E0,5.636593103E-1
3.560900698E0,-1.979145110E-1,-1.104717255E0,5.525113344E-1
3.563253927E0,-2.050919682E-1,-1.107160687E0,5.439594984E-1
3.565607156E0,-2.087570578E-1,-1.102426648E0,5.315898061E-1
3.567960385E0,-2.134911120E-1,-1.098914266E0,5.192201734E-1
3.570313614E0,-2.194468826E-1,-1.093111157E0,5.044071078E-1
3.572666896E0,-2.217375487E-1,-1.086086392E0,4.897467792E-1
3.575020125E0,-2.241809368E-1,-1.078908920E0,4.785988331E-1
3.577373354E0,-2.252499312E-1,-1.069440842E0,4.627167881E-1
3.579726583E0,-2.250972092E-1,-1.057529330E0,4.479037523E-1
3.582079812E0,-2.211267054E-1,-1.046839476E0,4.332434237E-1
3.584433094E0,-2.185306102E-1,-1.037371397E0,4.185830951E-1
3.586786323E0,-2.121167034E-1,-1.027750492E0,4.039227366E-1
3.589139552E0,-2.057028115E-1,-1.015838981E0,3.880407214E-1
3.591492781E0,-1.956238300E-1,-1.007592559E0,3.723114133E-1
3.593846010E0,-1.855448484E-1,-9.991934299E-1,3.588727713E-1
3.596199239E0,-1.753131598E-1,-9.932376146E-1,3.407000601E-1
3.598552469E0,-1.652341783E-1,-9.862129092E-1,3.248180151E-1
3.600905750E0,-1.539335102E-1,-9.790354371E-1,3.115321100E-1
3.603258979E0,-1.424801201E-1,-9.743013978E-1,2.968717813E-1
3.605612208E0,-1.311794519E-1,-9.671239257E-1,2.823641598E-1
3.607965437E0,-1.160609797E-1,-9.611681700E-1,2.678565085E-1
3.610318666E0,-9.987352788E-2,-9.539906979E-1,2.533488870E-1
3.612671896E0,-8.231166750E-2,-9.492566586E-1,2.389939874E-1
3.615025177E0,-6.719319522E-2,-9.420791864E-1,2.244863659E-1
3.617378406E0,-4.963133857E-2,-9.324583411E-1,2.124221325E-1
3.619731635E0,-2.977880463E-2,-9.203941226E-1,1.991362125E-1
3.622084864E0,-1.099525020E-2,-9.109259844E-1,1.858502775E-1
3.624438094E0,6.413896102E-3,-8.976400495E-1,1.763821393E-1
3.626791323E0,2.382304333E-2,-8.845068216E-1,1.667613089E-1
3.629144604E0,4.245388508E-2,-8.689302206E-1,1.595838517E-1
3.631497833E0,6.230641901E-2,-8.519791961E-1,1.548497826E-1
3.633851062E0,7.834116369E-2,-8.351809382E-1,1.488940120E-1
3.636204291E0,9.315420687E-2,-8.159392476E-1,1.466033459E-1
3.638557521E0,1.091889441E-1,-7.991409302E-1,1.418692768E-1
3.640910750E0,1.240019947E-1,-7.774558663E-1,1.432436854E-1
3.643263979E0,1.386623234E-1,-7.547017932E-1,1.433963925E-1
3.645617260E0,1.496575773E-1,-7.330167294E-1,1.433963925E-1
3.647970489E0,1.630962193E-1,-7.101099491E-1,1.447708011E-1
3.650323719E0,1.728697717E-1,-6.814001203E-1,1.459924877E-1
3.652676948E0,1.838650256E-1,-6.560499668E-1,1.449235082E-1
3.655030177E0,1.910424829E-1,-6.296308041E-1,1.461452097E-1
3.657383406E0,2.018850148E-1,-5.996993184E-1,1.498102844E-1
3.659736687E0,2.104368806E-1,-5.671716928E-1,1.510319859E-1
3.662089916E0,2.174616307E-1,-5.360184908E-1,1.559187621E-1
3.664443146E0,2.234173864E-1,-5.071559548E-1,1.559187621E-1
3.666796375E0,2.319692522E-1,-4.807367921E-1,1.608055383E-1
3.669149604E0,2.403683960E-1,-4.530959427E-1,1.656923145E-1
3.671502833E0,2.449497581E-1,-4.242334068E-1,1.681357026E-1
3.673856062E0,2.498365343E-1,-3.978142738E-1,1.692046970E-1
3.676209344E0,2.557922900E-1,-3.738385141E-1,1.728697717E-1
3.678562573E0,2.615953386E-1,-3.497100472E-1,1.789782494E-1
3.680915802E0,2.664821148E-1,-3.280249834E-1,1.826433241E-1
3.683269031E0,2.698417902E-1,-3.077143133E-1,1.875301152E-1
3.685622260E0,2.733541429E-1,-2.872509360E-1,1.911951900E-1
3.687975489E0,2.770192325E-1,-2.692309320E-1,1.924168915E-1
3.690328771E0,2.817533016E-1,-2.536543310E-1,1.948602796E-1
3.692682000E0,2.854183912E-1,-2.344126403E-1,1.936385781E-1
3.695035229E0,2.889307439E-1,-2.211267054E-1,1.948602796E-1
3.697388458E0,2.976353168E-1,-2.102841735E-1,1.936385781E-1
3.699741687E0,2.988570333E-1,-1.983726472E-1,1.911951900E-1
3.702094916E0,3.049654961E-1,-1.863084137E-1,1.887518018E-1
3.704448198E0,3.098522723E-1,-1.803526580E-1,1.864611208E-1
3.706801427E0,3.148917556E-1,-1.695101112E-1,1.852394342E-1
3.709154656E0,3.234436214E-1,-1.647760421E-1,1.829487532E-1
3.711507885E0,3.284831047E-1,-1.588202864E-1,1.792836636E-1
3.713861114E0,3.335226178E-1,-1.514901221E-1,1.756185889E-1
3.716214344E0,3.396310806E-1,-1.467560530E-1,1.719534993E-1
3.718567573E0,3.483356535E-1,-1.408002973E-1,1.708845198E-1
3.720920854E0,3.545968235E-1,-1.395785958E-1,1.661504507E-1
3.723274083E0,3.608580232E-1,-1.371352077E-1,1.624853760E-1
3.725627312E0,3.658975065E-1,-1.336228400E-1,1.575985998E-1
3.727980541E0,3.683409095E-1,-1.346918195E-1,1.553079188E-1
3.730333771E0,3.709369898E-1,-1.336228400E-1,1.479777545E-1
3.732687000E0,3.735330999E-1,-1.348445266E-1,1.406475753E-1
3.735040281E0,3.775036037E-1,-1.385096163E-1,1.333174109E-1
3.737393510E0,3.775036037E-1,-1.372879148E-1,1.259872466E-1
3.739746739E0,3.790307343E-1,-1.362189353E-1,1.162136942E-1
3.742099969E0,3.778090179E-1,-1.374406368E-1,1.076618284E-1
3.744453198E0,3.779617548E-1,-1.339282542E-1,9.666658193E-2
3.746806427E0,3.794888556E-1,-1.363716573E-1,8.811471611E-2
3.749159708E0,3.794888556E-1,-1.340809762E-1,8.063183725E-2
3.751512937E0,3.796415627E-1,-1.365243644E-1,7.330167294E-2
3.753866166E0,3.810159862E-1,-1.377460510E-1,6.597150117E-2
3.756219396E0,3.823903799E-1,-1.424801201E-1,6.245913357E-2
3.758572625E0,3.813214004E-1,-1.461452097E-1,5.268557742E-2
3.760925854E0,3.826957941E-1,-1.522536725E-1,4.535540938E-2
3.763279135E0,3.852919042E-1,-1.559187621E-1,4.169032723E-2
3.765632364E0,3.903313875E-1,-1.618745178E-1,3.939964995E-2
3.767985594E0,3.915531039E-1,-1.641651988E-1,4.062134400E-2
3.770338823E0,3.965925872E-1,-1.666085869E-1,3.573456407E-2
3.772692052E0,4.030064642E-1,-1.702736765E-1,2.611372061E-2
3.775045281E0,4.132381678E-1,-1.727170646E-1,1.282779220E-2
3.777398510E0,4.196520746E-1,-1.776038408E-1,6.108472589E-4
3.779751791E0,4.297310412E-1,-1.776038408E-1,-1.023169141E-2
3.782105021E0,4.398100376E-1,-1.812689304E-1,-2.107422985E-2
3.784458250E0,4.498890042E-1,-1.860029846E-1,-2.947338112E-2
3.786811479E0,4.637857676E-1,-1.908897758E-1,-3.665083647E-2
3.789164708E0,4.750864506E-1,-1.968455315E-1,-4.260659590E-2
3.791517937E0,4.886777997E-1,-2.003578991E-1,-4.611896724E-2
3.793871219E0,5.050179958E-1,-2.063136548E-1,-4.825693369E-2
3.796224448E0,5.212054253E-1,-2.122694254E-1,-5.283828825E-2
3.798577677E0,5.361711979E-1,-2.218902707E-1,-5.512896553E-2
3.800930906E0,5.511369109E-1,-2.301367074E-1,-5.726693198E-2
3.803284135E0,5.673243999E-1,-2.385358512E-1,-5.573981255E-2
3.805637364E0,5.822901726E-1,-2.480039895E-1,-5.680879578E-2
3.807990646E0,5.972558856E-1,-2.576248348E-1,-5.650337040E-2
3.810343875E0,6.108472347E-1,-2.634278834E-1,-5.512896553E-2
3.812697104E0,6.245913506E-1,-2.681619525E-1,-5.360184610E-2
3.815050333E0,6.357392669E-1,-2.728960216E-1,-4.978405312E-2
3.817403562E0,6.505523324E-1,-2.800734639E-1,-4.337015375E-2
3.819756791E0,6.629219651E-1,-2.823641598E-1,-4.077405483E-2
3.822110073E0,6.752916574E-1,-2.823641598E-1,-3.817795217E-2
3.824463302E0,6.850652099E-1,-2.797680497E-1,-3.313846514E-2
3.826816531E0,6.985038519E-1,-2.748812735E-1,-2.809897438E-2
3.829169760E0,7.133168578E-1,-2.664821148E-1,-2.672456764E-2
3.831522989E0,7.243121266E-1,-2.568612695E-1,-2.168507688E-2
3.833876219E0,7.366818190E-1,-2.495311052E-1,-1.908897609E-2
3.836229448E0,7.452336550E-1,-2.351761907E-1,-1.649287529E-2
3.838582729E0,7.550072074E-1,-2.194468826E-1,-1.527118124E-2
3.840935958E0,7.635591030E-1,-2.002051920E-1,-1.389677543E-2
3.843289187E0,7.684458494E-1,-1.870719790E-1,-1.267508045E-2
3.845642416E0,7.719582319E-1,-1.678302884E-1,-7.788302377E-3
3.847995646E0,7.728744745E-1,-1.485885978E-1,-4.275931045E-3
3.850348875E0,7.715001106E-1,-1.305686086E-1,6.108472589E-4
3.852702156E0,7.675296068E-1,-1.101052165E-1,5.344913341E-3
3.855055385E0,7.623373866E-1,-8.735115826E-2,1.007897966E-2
3.857408614E0,7.547017932E-1,-6.459710002E-2,1.603474095E-2
3.859761844E0,7.481352091E-1,-4.062134400E-2,2.076880634E-2
3.862115073E0,7.392778993E-1,-1.420219894E-2,2.657185495E-2
3.864468302E0,7.314895988E-1,1.343864016E-2,2.764083818E-2
3.866821583E0,7.226322889E-1,3.848337755E-2,2.977880463E-2
3.869174812E0,7.137750387E-1,7.085828483E-2,3.084778599E-2
3.871528041E0,7.061394453E-1,9.727742523E-2,2.932066843E-2
3.873881271E0,6.946860552E-1,1.235438585E-1,3.161134571E-2
3.876234500E0,6.821636558E-1,1.487413049E-1,3.008422814E-2
3.878587729E0,6.684195995E-1,1.750077456E-1,2.855710872E-2
3.880941010E0,6.533011198E-1,2.014268786E-1,2.947338112E-2
3.883294239E0,6.369609833E-1,2.276933193E-1,3.023693897E-2
3.885647469E0,6.218425035E-1,2.528907657E-1,3.359659761E-2
3.888000698E0,6.067240238E-1,2.779355049E-1,3.817795217E-2
3.890353927E0,5.928272605E-1,3.031329513E-1,4.169032723E-2
3.892707156E0,5.751127005E-1,3.330644667E-1,4.611896724E-2
3.895060385E0,5.575508475E-1,3.607053161E-1,5.070032179E-2
3.897413666E0,5.424323678E-1,3.845283389E-1,5.161659420E-2
3.899766896E0,5.273138881E-1,4.120164812E-1,5.253286287E-2
3.902120125E0,5.109737515E-1,4.396573007E-1,5.344913527E-2
3.904473354E0,4.972296655E-1,4.611896873E-1,5.070032179E-2
3.906826583E0,4.822639227E-1,4.850127101E-1,4.672981426E-2
3.909179812E0,4.697415531E-1,5.065450668E-1,4.520269856E-2
3.911533094E0,4.573718905E-1,5.244123936E-1,3.878879920E-2
3.913886323E0,4.472928941E-1,5.399889946E-1,3.619270027E-2
3.916239552E0,4.335488379E-1,5.566345453E-1,3.466558084E-2
3.918592781E0,4.198047817E-1,5.709894896E-1,3.573456407E-2
3.920946010E0,4.097257853E-1,5.830537081E-1,3.909422457E-2
3.923299239E0,3.996468186E-1,5.961869359E-1,4.138490185E-2
3.925652521E0,3.932329118E-1,6.070294380E-1,4.978405312E-2
3.928005750E0,3.881934285E-1,6.142069101E-1,5.589252338E-2
3.930358979E0,3.854446113E-1,6.238277555E-1,6.429167092E-2
3.932712208E0,3.865135908E-1,6.287145615E-1,7.421794534E-2
3.935065437E0,3.851391971E-1,6.311579347E-1,8.383878320E-2
3.937418666E0,3.863608837E-1,6.311579347E-1,8.887827396E-2
3.939771948E0,3.898732662E-1,6.313106418E-1,9.865183383E-2
3.942125177E0,3.947600424E-1,6.290199757E-1,1.024696305E-1
3.944478406E0,3.984251320E-1,6.218425035E-1,1.097997949E-1
3.946831635E0,4.008685052E-1,6.158867478E-1,1.160609797E-1
3.949184864E0,4.045335948E-1,6.087092757E-1,1.233911440E-1
3.951538094E0,4.081986845E-1,5.967977643E-1,1.308740228E-1
3.953891375E0,4.080459774E-1,5.885513425E-1,1.420219839E-1
3.956244604E0,4.078932703E-1,5.789304972E-1,1.542389393E-1
3.958597833E0,4.077405334E-1,5.706840754E-1,1.652341783E-1
3.960951062E0,4.063661397E-1,5.599942207E-1,1.776038408E-1
3.963304291E0,4.037700295E-1,5.515950918E-1,1.922641695E-1
3.965657521E0,4.023956358E-1,5.445703268E-1,2.057028115E-1
3.968010802E0,3.984251320E-1,5.422796607E-1,2.191414535E-1
3.970364031E0,3.932329118E-1,5.363239050E-1,2.350234836E-1
3.972717260E0,3.880407214E-1,5.328115225E-1,2.509055138E-1
3.975070489E0,3.791834414E-1,5.315898061E-1,2.641914487E-1
3.977423719E0,3.703261614E-1,5.292991400E-1,2.788517773E-1
3.979776948E0,3.588727713E-1,5.280774832E-1,2.909159958E-1
3.982130229E0,3.449759781E-1,5.257867575E-1,3.066453338E-1
3.984483458E0,3.312319219E-1,5.282301903E-1,3.199312389E-1
3.986836687E0,3.147390485E-1,5.306735635E-1,3.342861533E-1
3.989189916E0,2.996205688E-1,5.366293192E-1,3.487937748E-1
3.991543146E0,2.819060087E-1,5.427377820E-1,3.631486893E-1
3.993896375E0,2.667875290E-1,5.511369109E-1,3.739912212E-1
3.996249656E0,2.528907657E-1,5.619794726E-1,3.859027624E-1
3.998602885E0,2.365505993E-1,5.703786016E-1,4.004103839E-1
4.000956114E0,2.200577259E-1,5.787777901E-1,4.159869850E-1
4.003309344E0,2.049392611E-1,5.883986354E-1,4.317162931E-1
4.005662573E0,1.896680743E-1,6.004628539E-1,4.448495209E-1
4.008015802E0,1.769929975E-1,6.160394549E-1,4.605788291E-1
4.010369083E0,1.629435122E-1,6.244385839E-1,4.726430774E-1
4.012722312E0,1.528645307E-1,6.352811456E-1,4.847072959E-1
4.015075541E0,1.462979168E-1,6.473453641E-1,4.967715442E-1
4.017428771E0,1.374406368E-1,6.594096422E-1,5.063923597E-1
4.019782000E0,1.322484314E-1,6.726955175E-1,5.160132051E-1
4.022135229E0,1.270562261E-1,6.846070886E-1,5.221216679E-1
4.024488458E0,1.244601309E-1,6.942279339E-1,5.280774832E-1
4.026841739E0,1.230857223E-1,7.014053464E-1,5.305208564E-1
4.029194969E0,1.204896197E-1,7.085828185E-1,5.303681493E-1
4.031548198E0,1.204896197E-1,7.169819474E-1,5.315898061E-1
4.033901427E0,1.178935245E-1,7.218687534E-1,5.328115225E-1
4.036254656E0,1.154501289E-1,7.278245091E-1,5.303681493E-1
4.038607885E0,1.154501289E-1,7.290462255E-1,5.314370990E-1
4.040961166E0,1.116323397E-1,7.314895988E-1,5.326588154E-1
4.043314396E0,1.091889441E-1,7.337802649E-1,5.289937258E-1
4.045667625E0,1.043021679E-1,7.313368917E-1,5.300627351E-1
4.048020854E0,9.819369763E-2,7.276718020E-1,5.276193023E-1
4.050374083E0,9.452861547E-2,7.217160463E-1,5.227325559E-1
4.052727312E0,9.101624042E-2,7.108734846E-1,5.164713860E-1
4.055080594E0,8.246438205E-2,6.988092661E-1,5.115845799E-1
4.057433823E0,7.773031294E-2,6.830799580E-1,5.042544007E-1
4.059787052E0,7.055285573E-2,6.638382673E-1,4.955498278E-1
4.062140281E0,6.474980712E-2,6.397097707E-1,4.845545888E-1
4.064493510E0,5.757235363E-2,6.120689511E-1,4.772244096E-1
4.066833666E0,5.054761097E-2,5.832064152E-1,4.711159468E-1
4.069200021E0,4.092676565E-2,5.508314967E-1,4.662291706E-1
4.071553250E0,2.748812735E-2,5.195255876E-1,4.662291706E-1
4.073906479E0,1.649287529E-2,4.906630516E-1,4.648547769E-1
4.076259708E0,3.054236295E-3,4.630222321E-1,4.672981501E-1
4.078612937E0,-8.093725890E-3,4.414898455E-1,4.720322192E-1
4.080966219E0,-1.908897609E-2,4.222481549E-1,4.769189954E-1
4.083319448E0,-3.023693897E-2,4.042281806E-1,4.840964675E-1
4.085672677E0,-4.260659590E-2,3.874298632E-1,4.889832437E-1
4.088025906E0,-5.512896553E-2,3.742966652E-1,4.949389994E-1
4.090379135E0,-6.734590977E-2,3.622324169E-1,4.972296655E-1
4.092732364E0,-7.971556485E-2,3.454341292E-1,4.984513521E-1
4.095085646E0,-8.948912472E-2,3.333698809E-1,4.982986450E-1
4.097438875E0,-9.941539168E-2,3.200839758E-1,4.981459379E-1
4.099792104E0,-1.091889441E-1,3.081724346E-1,4.981459379E-1
4.102145333E0,-1.177408099E-1,2.996205688E-1,4.955498278E-1
4.104498562E0,-1.287360638E-1,2.899997234E-1,4.917320311E-1
4.106851791E0,-1.374406368E-1,2.838912606E-1,4.917320311E-1
4.109205021E0,-1.473668963E-1,2.791571915E-1,4.903576374E-1
4.111558302E0,-1.583621502E-1,2.742704153E-1,4.902049303E-1
4.113911531E0,-1.708845198E-1,2.718270421E-1,4.900522232E-1
4.116264760E0,-1.832541823E-1,2.681619525E-1,4.911212027E-1
4.118617989E0,-1.956238300E-1,2.669402659E-1,4.897467792E-1
4.120971219E0,-2.104368806E-1,2.644968629E-1,4.882196784E-1
4.123324448E0,-2.264716178E-1,2.631224692E-1,4.892886579E-1
4.125677729E0,-2.414373755E-1,2.583884001E-1,4.891359508E-1
4.128030958E0,-2.548760176E-1,2.498365343E-1,4.877615273E-1
4.130384187E0,-2.709107697E-1,2.402156889E-1,4.850127101E-1
4.132737416E0,-2.869454920E-1,2.293731421E-1,4.824166298E-1
4.135090646E0,-3.042019308E-1,2.183778882E-1,4.785988331E-1
4.137443927E0,-3.200839758E-1,2.038702667E-1,4.746283293E-1
4.139797156E0,-3.361186981E-1,1.882936656E-1,4.708105326E-1
4.142150385E0,-3.544441164E-1,1.737860441E-1,4.633276463E-1
4.144503614E0,-3.703261614E-1,1.556133330E-1,4.570664763E-1
4.146856844E0,-3.874298632E-1,1.386623234E-1,4.457657933E-1
4.149210073E0,-4.069769979E-1,1.241547018E-1,4.382829070E-1
4.151563354E0,-4.240806997E-1,1.072036922E-1,4.283566475E-1
4.153916583E0,-4.411844313E-1,9.040539712E-2,4.182776511E-1
4.156269812E0,-4.569137394E-1,7.452336699E-2,4.059080184E-1
4.158623041E0,-4.740174711E-1,5.650337040E-2,3.959817290E-1
4.160976271E0,-4.873034060E-1,3.955236077E-2,3.811686933E-1
4.163329500E0,-5.030327439E-1,2.382304333E-2,3.674246371E-1
4.165682781E0,-5.176930428E-1,9.162709117E-3,3.526115716E-1
4.168036010E0,-5.322006941E-1,-6.566607859E-3,3.390202224E-1
4.170389239E0,-5.441122055E-1,-2.107422985E-2,3.205420971E-1
4.172742469E0,-5.561764240E-1,-3.558185324E-2,3.032856584E-1
4.175095698E0,-5.706840754E-1,-4.657710344E-2,2.860292196E-1
4.177448927E0,-5.815265775E-1,-5.635065958E-2,2.675510943E-1
4.179802156E0,-5.922164321E-1,-6.856760383E-2,2.490729690E-1
4.182155437E0,-6.018372774E-1,-7.589777559E-2,2.293731421E-1
4.184508666E0,-6.113054156E-1,-8.444963396E-2,2.084516287E-1
4.186861896E0,-6.195518374E-1,-8.826743066E-2,1.850867122E-1
4.189215125E0,-6.267293096E-1,-9.208522737E-2,1.653869003E-1
4.191568354E0,-6.361974478E-1,-9.575030953E-2,1.432436854E-1
4.193921635E0,-6.433748603E-1,-9.483403713E-2,1.223221645E-1
4.196274864E0,-6.491779089E-1,-9.254335612E-2,1.001789495E-1
4.198628094E0,-6.539120078E-1,-8.796200156E-2,8.170082420E-2
4.200981323E0,-6.586460471E-1,-8.444963396E-2,6.444438547E-2
4.203334552E0,-6.620057225E-1,-7.742489129E-2,4.230117425E-2
4.205687781E0,-6.679614782E-1,-7.269082218E-2,2.626643144E-2
4.208041062E0,-6.714738607E-1,-6.566607952E-2,9.162709117E-3
4.210394291E0,-6.723901033E-1,-6.215370819E-2,-6.872031838E-3
4.212747521E0,-6.722373962E-1,-5.390727147E-2,-2.153236605E-2
4.215100750E0,-6.745280623E-1,-5.039490014E-2,-3.634541109E-2
4.217453979E0,-6.780404449E-1,-4.688252881E-2,-5.100574717E-2
4.219807208E0,-6.791094542E-1,-4.581354558E-2,-6.215370819E-2
4.222160489E0,-6.789567471E-1,-4.581354558E-2,-7.314895838E-2
4.224513719E0,-6.774296165E-1,-4.596625641E-2,-8.536590636E-2
4.226866948E0,-6.760551929E-1,-4.596625641E-2,-9.758284688E-2
4.229220177E0,-6.720846891E-1,-5.207473040E-2,-1.073564067E-1
4.231573406E0,-6.682668924E-1,-5.451811850E-2,-1.169772521E-1
4.233926635E0,-6.630746722E-1,-5.818320066E-2,-1.304158866E-1
4.236279916E0,-6.603258848E-1,-6.429167092E-2,-1.414111406E-1
4.238633146E0,-6.526902914E-1,-6.902574003E-2,-1.510319859E-1
4.240986375E0,-6.426113248E-1,-7.635590434E-2,-1.606528312E-1
4.243339604E0,-6.336013079E-1,-8.353336155E-2,-1.714953631E-1
4.245692833E0,-6.223006248E-1,-9.437590092E-2,-1.798945218E-1
4.248046062E0,-6.120689511E-1,-1.015533581E-1,-1.907370538E-1
4.250399344E0,-5.971031785E-1,-1.123958975E-1,-1.977618039E-1
4.252752573E0,-5.818319917E-1,-1.267508119E-1,-2.086043358E-1
4.255105802E0,-5.667135715E-1,-1.398840249E-1,-2.180724740E-1
4.257459031E0,-5.515950918E-1,-1.591257155E-1,-2.250972092E-1
4.259812260E0,-5.352548957E-1,-1.759240031E-1,-2.334963679E-1
4.262165489E0,-5.187620521E-1,-1.939440072E-1,-2.429644912E-1
4.264518771E0,-5.024218559E-1,-2.142546773E-1,-2.512109280E-1
4.266872000E0,-4.860817194E-1,-2.333436459E-1,-2.570139766E-1
4.269225229E0,-4.683671296E-1,-2.525853515E-1,-2.664821148E-1
4.271578458E0,-4.532486796E-1,-2.706053257E-1,-2.747285664E-1
4.273931687E0,-4.343124032E-1,-2.921377122E-1,-2.866400778E-1
4.276284969E0,-4.167505503E-1,-3.136700690E-1,-2.924431264E-1
4.278638198E0,-3.990359604E-1,-3.376458287E-1,-3.006895781E-1
4.280991427E0,-3.800997138E-1,-3.628432751E-1,-3.051182032E-1
4.283344656E0,-3.663556576E-1,-3.819322586E-1,-3.110739589E-1
4.285697885E0,-3.498627543E-1,-4.046863019E-1,-3.144336343E-1
4.288051114E0,-3.335226178E-1,-4.298837483E-1,-3.176405728E-1
4.290404396E0,-3.208475113E-1,-4.550811946E-1,-3.235963285E-1
4.292757625E0,-3.057290614E-1,-4.801259339E-1,-3.281776905E-1
4.295110854E0,-2.918322682E-1,-5.065450668E-1,-3.327590525E-1
4.297464083E0,-2.754921019E-1,-5.292991400E-1,-3.361186981E-1
4.299817312E0,-2.628170252E-1,-5.532749295E-1,-3.419217467E-1
4.302170594E0,-2.515163720E-1,-5.748072863E-1,-3.442124426E-1
4.304523823E0,-2.388412803E-1,-5.940489769E-1,-3.500154912E-1
4.306877052E0,-2.324273884E-1,-6.131379604E-1,-3.523061574E-1
4.309230281E0,-2.235700935E-1,-6.323796511E-1,-3.558185399E-1
4.311583510E0,-2.134911120E-1,-6.503996253E-1,-3.579564989E-1
4.313936739E0,-2.058555335E-1,-6.670452356E-1,-3.614688516E-1
4.316290021E0,-1.982199401E-1,-6.862868667E-1,-3.649812341E-1
4.318643250E0,-1.919587553E-1,-7.030851841E-1,-3.672719002E-1
4.320996479E0,-1.855448484E-1,-7.211052179E-1,-3.707842827E-1
4.323349708E0,-1.791309565E-1,-7.389724851E-1,-3.730749488E-1
4.325702937E0,-1.777565479E-1,-7.547017932E-1,-3.741439581E-1
4.328056166E0,-1.725643575E-1,-7.750124335E-1,-3.765873313E-1
4.330409396E0,-1.699682474E-1,-7.905890942E-1,-3.800997138E-1
4.332762677E0,-1.672194302E-1,-8.050966859E-1,-3.860554695E-1
4.335115906E0,-1.670667231E-1,-8.229639530E-1,-3.884988427E-1
4.337469135E0,-1.632489264E-1,-8.350282311E-1,-3.907895386E-1
4.339822364E0,-1.606528312E-1,-8.506048322E-1,-3.944546282E-1
4.342175594E0,-1.566823274E-1,-8.661814332E-1,-3.979669809E-1
4.344528875E0,-1.490467340E-1,-8.806890249E-1,-4.039227366E-1
4.346882104E0,-1.440072358E-1,-8.913788795E-1,-4.098785222E-1
4.349235333E0,-1.363716573E-1,-9.058864713E-1,-4.133908749E-1
4.351588562E0,-1.275143623E-1,-9.177979827E-1,-4.205683470E-1
4.353941791E0,-1.197260618E-1,-9.323056340E-1,-4.289674759E-1
4.356295021E0,-1.096470803E-1,-9.454388618E-1,-4.337015450E-1
4.358648302E0,-1.007898003E-1,-9.562813640E-1,-4.396573007E-1
4.361001531E0,-8.948912472E-2,-9.681929350E-1,-4.468347728E-1
4.363354760E0,-8.185353130E-2,-9.814788103E-1,-4.527905285E-1
4.365707989E0,-7.421794534E-2,-9.921686649E-1,-4.587462842E-1
4.368061219E0,-6.536065787E-2,-1.001789451E0,-4.647020400E-1
4.370414500E0,-5.894676223E-2,-1.010188699E0,-4.718795121E-1
4.372767729E0,-5.008947477E-2,-1.019809484E0,-4.778352678E-1
4.375120958E0,-4.260659590E-2,-1.024696231E0,-4.827220440E-1
4.377474187E0,-3.878879920E-2,-1.024696231E0,-4.898995161E-1
4.379827416E0,-3.497100621E-2,-1.028361320E0,-4.960079789E-1
4.382180646E0,-2.977880463E-2,-1.028361320E0,-5.033381581E-1
4.384533927E0,-2.718270384E-2,-1.032026410E0,-5.105155706E-1
4.386887156E0,-2.458660305E-2,-1.034469843E0,-5.190674663E-1
4.389240385E0,-2.321219631E-2,-1.033248186E0,-5.251759291E-1
4.391593614E0,-2.183778957E-2,-1.034469843E0,-5.325061083E-1
4.393946844E0,-2.550287358E-2,-1.035691500E0,-5.399889946E-1
4.396300073E0,-2.657185495E-2,-1.033400893E0,-5.436540842E-1
4.398653354E0,-3.405473381E-2,-1.031110168E0,-5.499152541E-1
4.401006583E0,-3.771981969E-2,-1.026223421E0,-5.535803437E-1
4.403359812E0,-4.504998401E-2,-1.023932695E0,-5.598415136E-1
4.405713041E0,-5.238015205E-2,-1.019198656E0,-5.673243999E-1
4.408066271E0,-5.864133686E-2,-1.015686274E0,-5.711421967E-1
4.410419500E0,-6.719319522E-2,-1.009730577E0,-5.749599934E-1
4.412772781E0,-7.711946964E-2,-1.004996419E0,-5.775560737E-1
4.415126010E0,-8.719844371E-2,-9.978190064E-1,-5.752654076E-1
4.417479239E0,-9.834641218E-2,-9.906415343E-1,-5.754181147E-1
4.419832469E0,-1.120904684E-1,-9.799517393E-1,-5.745018721E-1
4.422185698E0,-1.233911440E-1,-9.668185115E-1,-5.697677732E-1
4.424538979E0,-1.359135211E-1,-9.536852837E-1,-5.674771070E-1
4.426892208E0,-1.473668963E-1,-9.381086826E-1,-5.628957748E-1
4.429245437E0,-1.574458778E-1,-9.176452756E-1,-5.581616759E-1
4.431598666E0,-1.676775664E-1,-8.973346353E-1,-5.523586273E-1
4.433951896E0,-1.753131598E-1,-8.744278550E-1,-5.451811552E-1
4.436305125E0,-1.856975704E-1,-8.469397426E-1,-5.355603099E-1
4.438658406E0,-1.947075576E-1,-8.168554902E-1,-5.273138881E-1
4.441011635E0,-2.024958730E-1,-7.857022882E-1,-5.176930428E-1
4.443364864E0,-2.090624720E-1,-7.533273697E-1,-5.080721974E-1
4.445718094E0,-2.145601064E-1,-7.183563709E-1,-4.949389994E-1
4.448071323E0,-2.186833173E-1,-6.847597957E-1,-4.828747511E-1
4.450424552E0,-2.254026383E-1,-6.499415040E-1,-4.695888162E-1
4.452777833E0,-2.293731421E-1,-6.186355352E-1,-4.599680007E-1
4.455131062E0,-2.322746664E-1,-5.862606764E-1,-4.479037523E-1
4.457484291E0,-2.377723008E-1,-5.537330508E-1,-4.346178174E-1
4.459837521E0,-2.431172132E-1,-5.201364160E-1,-4.213318825E-1
4.462190750E0,-2.486148328E-1,-4.900522232E-1,-4.068242610E-1
4.464544031E0,-2.539597452E-1,-4.588989913E-1,-3.959817290E-1
4.466897260E0,-2.568612695E-1,-4.300364852E-1,-3.814741075E-1
4.469250489E0,-2.635805905E-1,-3.987305462E-1,-3.681881726E-1
4.471603719E0,-2.677038014E-1,-3.710896969E-1,-3.561239541E-1
4.473956948E0,-2.704526186E-1,-3.422271907E-1,-3.465031087E-1
4.476310177E0,-2.770192325E-1,-3.145863414E-1,-3.356605768E-1
4.478663458E0,-2.835858464E-1,-2.893888950E-1,-3.249707520E-1
4.481016687E0,-2.889307439E-1,-2.666348219E-1,-3.151971996E-1
4.483369916E0,-2.916795611E-1,-2.425063550E-1,-3.055763543E-1
4.485723146E0,-2.982461751E-1,-2.197522968E-1,-2.971771955E-1
4.488076375E0,-3.034383655E-1,-1.980672181E-1,-2.924431264E-1
4.490429656E0,-3.074088693E-1,-1.765348613E-1,-2.852656841E-1
4.492782885E0,-3.138227761E-1,-1.513374150E-1,-2.817533016E-1
4.495136114E0,-3.190149665E-1,-1.308740228E-1,-2.757975459E-1
4.497489344E0,-3.242071867E-1,-1.081199646E-1,-2.747285664E-1
4.499842573E0,-3.280249834E-1,-8.658760041E-2,-2.748812735E-1
4.502195802E0,-3.293993771E-1,-6.612421572E-2,-2.750339806E-1
4.504549083E0,-3.333698809E-1,-4.459185153E-2,-2.764083743E-1
4.506902312E0,-3.359659910E-1,-2.550287358E-2,-2.788517773E-1
4.509255541E0,-3.359659910E-1,-6.261184346E-3,-2.814478874E-1
4.511608771E0,-3.385621011E-1,1.160609815E-2,-2.864873707E-1
4.513962000E0,-3.361186981E-1,3.084778599E-2,-2.901524603E-1
4.516315229E0,-3.373403847E-1,4.764608666E-2,-2.951919436E-1
4.518668510E0,-3.374931216E-1,6.322269142E-2,-2.976353168E-1
4.521021739E0,-3.338280320E-1,7.879929990E-2,-3.037438095E-1
4.523374969E0,-3.326063454E-1,9.666658193E-2,-3.075616062E-1
4.525728198E0,-3.326063454E-1,1.110214889E-1,-3.112266660E-1
4.528081427E0,-3.313846290E-1,1.230857223E-1,-3.161134422E-1
4.530434656E0,-3.315373361E-1,1.398840249E-1,-3.162661791E-1
4.532787937E0,-3.303156495E-1,1.542389393E-1,-3.187095523E-1
4.535141166E0,-3.292466700E-1,1.698155403E-1,-3.199312389E-1
4.537494396E0,-3.268032968E-1,1.829487532E-1,-3.225273490E-1
4.539847625E0,-3.268032968E-1,1.973036677E-1,-3.286358118E-1
4.542200854E0,-3.255815804E-1,2.141019702E-1,-3.323009014E-1
4.544554135E0,-3.194731176E-1,2.272351831E-1,-3.359659910E-1
4.546907364E0,-3.170297146E-1,2.452551723E-1,-3.410054743E-1
4.549260594E0,-3.145863414E-1,2.632751763E-1,-3.458922505E-1
4.551613823E0,-3.083251417E-1,2.811424434E-1,-3.507790267E-1
4.553967052E0,-3.060344756E-1,3.003841341E-1,-3.556658030E-1
4.556320333E0,-3.035911024E-1,3.171824515E-1,-3.581092060E-1
4.558673562E0,-2.973299026E-1,3.352024257E-1,-3.642176688E-1
4.561026791E0,-2.924431264E-1,3.542914093E-1,-3.691044450E-1
4.563380021E0,-2.887780368E-1,3.746020794E-1,-3.741439581E-1
4.565733250E0,-2.852656841E-1,3.938437700E-1,-3.765873313E-1
4.568086479E0,-2.816005945E-1,4.118637741E-1,-3.814741075E-1
4.570439760E0,-2.791571915E-1,4.297310412E-1,-3.888042867E-1
4.572792989E0,-2.753393948E-1,4.465293586E-1,-3.950654566E-1
4.575146219E0,-2.728960216E-1,4.645493329E-1,-4.036173224E-1
4.577499448E0,-2.716743052E-1,4.824166298E-1,-4.085040987E-1
4.579852677E0,-2.704526186E-1,4.955498278E-1,-4.135435820E-1
4.582205906E0,-2.692309320E-1,5.111264586E-1,-4.172086716E-1
4.584559187E0,-2.643441558E-1,5.267030597E-1,-4.220954478E-1
4.586912416E0,-2.643441558E-1,5.422796607E-1,-4.271349311E-1
4.589265646E0,-2.606790662E-1,5.555655956E-1,-4.308000207E-1
4.591618875E0,-2.557922900E-1,5.699204803E-1,-4.306473136E-1
4.593972104E0,-2.496838123E-1,5.867187977E-1,-4.330907166E-1
4.596325333E0,-2.447970361E-1,6.035171151E-1,-4.367557764E-1
4.598678614E0,-2.374668717E-1,6.215370893E-1,-4.379774928E-1
4.601031844E0,-2.301367074E-1,6.371136904E-1,-4.379774928E-1
4.603385073E0,-2.215848416E-1,6.539120078E-1,-4.379774928E-1
4.605738302E0,-2.156290859E-1,6.731536984E-1,-4.353813827E-1
4.608091531E0,-2.070772201E-1,6.901046634E-1,-4.341596961E-1
4.610444812E0,-1.997470558E-1,7.069029808E-1,-4.341596961E-1
4.612798041E0,-1.911951900E-1,7.224795818E-1,-4.315635860E-1
4.615151271E0,-1.814216375E-1,7.392778993E-1,-4.291202128E-1
4.617504500E0,-1.716480851E-1,7.550072074E-1,-4.277457893E-1
4.619857729E0,-1.618745178E-1,7.658497691E-1,-4.253024161E-1
4.622210958E0,-1.571404636E-1,7.826480269E-1,-4.216373265E-1
4.624564239E0,-1.484358907E-1,7.934905887E-1,-4.227063060E-1
4.626917469E0,-1.424801201E-1,8.043331504E-1,-4.178195298E-1
4.629270698E0,-1.339282542E-1,8.163973689E-1,-4.140017331E-1
4.631623927E0,-1.252236813E-1,8.247964978E-1,-4.115583301E-1
4.633977156E0,-1.168245375E-1,8.356390595E-1,-4.077405334E-1
4.636330385E0,-1.082726792E-1,8.454126120E-1,-4.027010500E-1
4.638683666E0,-1.009425074E-1,8.550334573E-1,-3.965925872E-1
4.641036896E0,-9.239064902E-2,8.599202037E-1,-3.915531039E-1
4.643390125E0,-8.383878320E-2,8.672503829E-1,-3.840702176E-1
4.645743354E0,-7.406523079E-2,8.709154725E-1,-3.765873313E-1
4.648096583E0,-6.444438547E-2,8.758022785E-1,-3.666610718E-1
4.650449812E0,-5.589252338E-2,8.794673681E-1,-3.593308926E-1
4.652803094E0,-4.734066129E-2,8.806890249E-1,-3.530697227E-1
4.655156323E0,-3.863608837E-2,8.783983588E-1,-3.480302393E-1
4.657509552E0,-3.008422814E-2,8.724426031E-1,-3.405473530E-1
4.659862781E0,-2.153236605E-2,8.689302206E-1,-3.342861533E-1
4.662216010E0,-1.282779220E-2,8.594620824E-1,-3.268032968E-1
4.664569291E0,-6.719320081E-3,8.499939442E-1,-3.205420971E-1
4.666922521E0,7.635590737E-4,8.344173431E-1,-3.155026138E-1
4.669275750E0,9.468132630E-3,8.212841153E-1,-3.078670204E-1
4.671628979E0,1.939439960E-2,8.034168482E-1,-3.016058207E-1
4.673982208E0,2.809897438E-2,7.866185308E-1,-2.951919436E-1
4.676335489E0,3.680354729E-2,7.652388811E-1,-2.889307439E-1
4.678688719E0,5.054761097E-2,7.461498976E-1,-2.812951505E-1
4.681041948E0,6.291726977E-2,7.233958840E-1,-2.761029601E-1
4.683395177E0,7.910472155E-2,6.983511448E-1,-2.696890533E-1
4.685748406E0,9.284878522E-2,6.731536984E-1,-2.657185495E-1
4.688101635E0,1.091889441E-1,6.433748603E-1,-2.641914487E-1
4.690454916E0,1.304158866E-1,6.134433746E-1,-2.612899244E-1
4.692808146E0,1.505738497E-1,5.822901726E-1,-2.583884001E-1
4.695161375E0,1.754658818E-1,5.512896776E-1,-2.542651594E-1
