"Time (s)","Linear Acceleration x (m/s^2)","Linear Acceleration y (m/s^2)","Linear Acceleration z (m/s^2)"
1.572978850E-1,-1.299324036E-1,-1.364493370E-1,-3.082704544E-2
1.761237710E-1,-1.391687393E-1,-2.422280312E-1,-1.509017944E-1
1.949496560E-1,-1.766846180E-1,-2.784571648E-1,-2.169551849E-1
2.137755410E-1,-1.749613285E-1,-1.741008759E-1,-2.011666298E-1
2.326014270E-1,-4.063057899E-2,-1.250100136E-1,-1.500253677E-1
2.514272600E-1,7.653427124E-2,-8.697462082E-2,-1.917552948E-1
2.702531460E-1,2.214074135E-2,-9.613990784E-3,-2.586722374E-1
2.890790310E-1,2.296853065E-2,-3.557872772E-2,-2.744112015E-1
3.079049160E-1,1.949503422E-1,-1.291513443E-1,-2.605810165E-1
3.267308020E-1,3.474981785E-1,-1.474361420E-1,-2.674679756E-1
3.455566870E-1,4.445183277E-1,-1.528501511E-2,-2.263846397E-1
3.643825730E-1,3.421955109E-1,7.920217514E-2,-1.902256012E-1
3.832084060E-1,2.923061848E-1,1.181435585E-1,-6.395149231E-2
4.020342910E-1,1.952688694E-1,4.191112518E-2,-6.317186356E-2
4.208601770E-1,6.623888016E-1,-1.759409904E-1,-1.552696228E-1
4.396726250E-1,1.678002596E0,9.938573837E-2,3.549246788E-1
4.588272080E-1,3.172013521E0,-2.698230743E-1,4.251608849E-1
4.780293430E-1,2.246816158E0,4.502344131E-1,-5.609488487E-1
4.972314270E-1,1.576174736E0,8.414845467E-1,-1.029021263E0
5.164335620E-1,2.004708767E0,6.655955315E-1,-9.728293419E-1
5.356356980E-1,2.322977781E0,7.465834618E-1,-9.037523270E-1
5.548378330E-1,2.109467030E0,8.899192810E-1,-6.202425957E-1
5.738204370E-1,2.047783852E0,9.063177109E-1,-1.571340561E-1
5.926463230E-1,1.862424135E0,7.442750931E-1,1.837344170E-1
6.114722080E-1,1.324573159E0,8.937234879E-1,1.429176331E-2
6.302980930E-1,8.837187290E-1,9.492683411E-1,-7.339143753E-2
6.491239270E-1,7.067480087E-1,1.037836075E0,-2.927074432E-1
6.679498120E-1,7.171833515E-1,1.090809822E0,-4.365401268E-1
6.867756980E-1,8.880506158E-1,1.024518013E0,-8.076450825E-1
7.056015830E-1,1.250546455E0,9.248113632E-1,-1.323867559E0
7.244274680E-1,1.795053244E0,7.916355133E-1,-1.680236101E0
7.432533540E-1,1.949379683E0,1.322135925E0,-1.696061134E0
7.620792390E-1,1.513906360E0,1.674498558E0,-1.751299620E0
7.809051250E-1,8.668393493E-1,1.278950691E0,-2.098140001E0
7.997310100E-1,1.002544165E-1,1.309617043E0,-2.265855312E0
8.185568430E-1,-7.029713392E-1,1.228104591E0,-2.699744225E0
8.373827290E-1,-1.521045446E0,9.745531082E-1,-3.160474777E0
8.562086140E-1,-2.540752172E0,8.720731735E-1,-3.504415989E0
8.750345000E-1,-3.388806820E0,9.441003799E-1,-3.475729465E0
8.938603850E-1,-3.379093409E0,3.536090851E-1,-2.987265825E0
9.126862710E-1,-2.676896334E0,1.201944351E-1,-2.007496834E0
9.315121560E-1,-1.505093694E0,-8.190155029E-3,-1.010874033E0
9.503380410E-1,-6.421325207E-1,3.383827209E-2,-3.271670341E-1
9.691639270E-1,-3.968993425E-1,6.783437729E-1,-8.824825287E-3
9.879898120E-1,-2.667621374E-1,1.220956802E0,-1.469945908E-2
1.006815646E0,-2.721413374E-1,1.202827454E0,1.662058830E-1
1.025641531E0,-2.087320089E-1,6.216955185E-1,1.129285812E0
1.044467416E0,1.123354435E-1,7.355718613E-1,1.675349236E0
1.063293302E0,2.759802341E-2,9.435653687E-1,7.055397034E-1
1.082119187E0,-1.045627832E0,9.573316574E-1,-5.036001205E-1
1.100945073E0,-2.729375839E0,7.082576752E-1,-1.077500105E0
1.119770958E0,-3.022950649E0,1.899433136E-1,-2.034921885E0
1.138596843E0,-2.849036455E0,-5.608386993E-1,-1.915426970E0
1.157422729E0,-2.761793137E0,-1.232866287E0,-1.330261707E0
1.176248614E0,-2.548628092E0,-1.500559807E0,-1.090703726E0
1.195074500E0,-2.590674877E0,-1.315568924E0,-1.041957617E0
1.213900385E0,-2.624664307E0,-1.547993183E0,-1.071371794E0
1.232726271E0,-2.643440723E0,-1.651298046E0,-5.711915493E-1
1.251552156E0,-2.223757029E0,-1.601511955E0,3.668832779E-2
1.270378041E0,-1.626562715E0,-1.400766850E0,-1.831066608E-1
1.289203927E0,-1.081558585E0,-1.499748230E0,-4.303894043E-1
1.308029760E0,-5.133439302E-1,-1.126442432E0,2.504882812E-1
1.326855646E0,3.599617481E-1,-7.617082596E-1,1.226888895E0
1.345681531E0,1.109532595E0,-2.813301086E-1,1.540434361E0
1.364507416E0,7.292342186E-1,3.771743774E-1,1.034596920E0
1.383333302E0,-2.554965019E-1,3.852033615E-1,5.679743290E-1
1.402159187E0,-8.618810177E-1,3.334770203E-1,6.164391041E-1
1.420985073E0,-7.356657982E-1,1.826095581E-2,6.190929413E-1
1.439810958E0,-5.247912407E-1,-1.651477814E-2,8.511521816E-1
1.458636843E0,-1.337859631E-1,2.163324356E-1,8.709037304E-1
1.477462729E0,1.367850304E-1,1.747722626E-1,5.877561569E-1
1.496288614E0,2.691612244E-1,4.070434570E-1,4.330108166E-1
1.515114500E0,6.687577963E-1,6.442337036E-1,5.545845032E-1
1.533940385E0,1.172841549E0,1.125517845E0,4.777255058E-1
1.552766271E0,1.501971364E0,1.288436890E0,2.393517494E-1
1.571592156E0,1.521592379E0,1.445872307E0,3.424124718E-1
1.590418041E0,1.527256966E0,1.057101250E0,4.367465973E-1
1.609243927E0,1.360198259E0,9.077968597E-1,2.407417297E-1
1.628069812E0,1.083176136E0,1.080835342E0,1.385209560E-1
1.646895698E0,1.166903734E0,7.689437866E-1,-1.091090441E-1
1.665721583E0,1.260240793E0,-2.122316360E-1,-6.298341751E-1
1.684547468E0,1.191563964E0,-8.781032562E-1,-6.775612831E-1
1.703373354E0,1.177367926E0,-5.193614960E-1,-6.078658104E-1
1.722199239E0,8.238096833E-1,2.611522675E-1,-6.039123535E-1
1.741025125E0,5.109547973E-1,8.532867432E-1,-4.123300314E-1
1.759851010E0,3.091867566E-1,1.242811203E0,-4.900979996E-1
1.778676896E0,5.218636990E-2,1.462396622E0,-8.340221643E-1
1.797502781E0,-1.889089346E-1,1.488033295E0,-7.510156035E-1
1.816328666E0,-1.070541739E-1,1.163832664E0,-6.122685671E-1
1.835154552E0,-2.311391234E-1,7.639493942E-1,-3.401823044E-1
1.853980437E0,-2.712690830E-1,2.869520187E-1,-5.675402880E-1
1.872806323E0,-2.646890879E-1,2.961521149E-1,-7.145293355E-1
1.891632208E0,-8.789110184E-2,1.523160934E-1,-9.423759580E-1
1.910458093E0,4.320865870E-2,2.562999725E-1,-9.935171604E-1
1.929283979E0,1.425273716E-1,2.025375366E-1,-1.104135275E0
1.948109864E0,5.386260152E-2,1.012802124E-3,-1.330683112E0
1.966935750E0,-8.405503631E-2,-1.911039352E-1,-1.457829833E0
1.985761687E0,-5.656865239E-2,-1.963987350E-1,-1.673017502E0
2.004587573E0,-1.073867679E-1,-1.661128998E-1,-1.887545228E0
2.023413458E0,-3.016113639E-1,-1.633548737E-2,-1.754770279E0
2.042239343E0,-4.285000563E-1,3.559236526E-1,-1.562251806E0
2.061065229E0,-6.040432453E-1,5.499496460E-1,-1.709235072E0
2.079891114E0,-9.163571000E-1,6.017694473E-1,-1.619553089E0
2.098717000E0,-9.755407572E-1,5.785207748E-1,-1.375269771E0
2.117542885E0,-1.010624766E0,3.759670258E-1,-1.269057155E0
2.136368771E0,-1.077033281E0,6.344890594E-2,-1.090620875E0
2.155194656E0,-1.096888304E0,-2.098083496E-2,-6.885966063E-1
2.174020541E0,-1.171872139E0,-7.637977600E-2,-5.397760868E-1
2.192846427E0,-1.396124005E0,-2.508754730E-1,-5.261571407E-1
2.211672312E0,-1.460862994E0,-6.077947617E-1,-3.978369236E-1
2.230498198E0,-1.488587141E0,-1.084425926E0,2.135515213E-2
2.249324083E0,-1.457862139E0,-1.313364983E0,2.354874611E-1
2.268150021E0,-1.585821986E0,-6.455268860E-1,5.577166080E-1
2.286975906E0,-1.604414821E0,1.577043533E-1,8.572804928E-1
2.305801791E0,-1.673316598E0,6.898736954E-1,1.008927345E0
2.324627677E0,-1.727939010E0,4.477720261E-1,1.077029467E0
2.343453562E0,-1.579536796E0,-4.531421661E-1,1.161592722E0
2.362279448E0,-1.245322824E0,-1.519709587E0,1.267965078E0
2.381105333E0,-9.888966084E-1,-1.972596169E0,1.398211956E0
2.399931218E0,-8.266596794E-1,-1.779173851E0,1.173902750E0
2.418757104E0,-8.263623714E-1,-1.209946632E0,7.046604156E-1
2.437582989E0,-9.297665358E-1,-2.814378738E-1,4.174559116E-1
2.456408875E0,-1.114997864E0,1.010669708E0,2.184998989E-1
2.475234812E0,-1.306064129E0,1.953867912E0,-7.273769379E-2
2.494060698E0,-1.285995483E0,2.094275475E0,-3.861114979E-1
2.512886583E0,-8.476806879E-1,1.148765564E0,-4.899206161E-1
2.531712468E0,-9.738826752E-2,-1.784563065E-1,-4.168503284E-1
2.550538354E0,6.461090446E-1,-8.403282166E-1,-7.280941010E-1
2.569364239E0,1.251186848E0,-4.909086227E-1,-9.389004707E-1
2.588190125E0,1.910971403E0,1.290569305E-1,-1.095093727E0
2.607016062E0,2.169616461E0,6.995449066E-1,-1.317375660E0
2.625841948E0,1.886046648E0,9.437828064E-1,-1.693864346E0
2.644667833E0,1.450766563E0,5.746421814E-1,-2.020642281E0
2.663493718E0,1.212887526E0,-1.624832153E-1,-2.078210354E0
2.682319604E0,1.153580308E0,-6.030979156E-1,-1.829828978E0
2.701145489E0,1.054494739E0,-6.863775253E-1,-1.580301881E0
2.719971375E0,6.734638214E-1,-4.796733856E-1,-1.437486410E0
2.738797312E0,1.216713190E-1,-4.845714569E-2,-1.463534832E0
2.757716896E0,-5.873127580E-1,5.572843552E-1,-1.550012350E0
2.776919031E0,-1.337652564E0,1.122902870E0,-1.476006627E0
2.796121166E0,-1.840681076E0,1.159112930E0,-1.301422596E0
2.815323302E0,-2.299872398E0,6.578264236E-1,-1.070393801E0
2.834525437E0,-2.560890913E0,2.192497253E-2,-6.603815556E-1
2.853727625E0,-2.512313843E0,-5.048418045E-1,-2.885296345E-1
2.872929760E0,-2.172941923E0,-1.053528786E0,2.734806538E-1
2.891757677E0,-1.507475972E0,-1.858127594E0,6.912279129E-1
2.910583562E0,-9.972524643E-1,-2.162019253E0,1.057893276E0
2.929409448E0,-9.260609150E-1,-1.327246666E0,1.382424593E0
2.948235333E0,-1.166244745E0,8.739948273E-2,1.502727509E0
2.967061218E0,-1.429231167E0,1.197770119E0,1.677351236E0
2.985887156E0,-1.209225893E0,1.095740318E0,1.943321943E0
3.004713041E0,-7.616288662E-1,4.336528778E-1,2.160510778E0
3.023538927E0,-5.936048031E-1,-1.749811172E-1,2.174081087E0
3.042364812E0,-6.512770653E-1,-2.506141663E-1,2.295057774E0
3.061190698E0,-3.767347336E-1,-1.834239960E-1,2.433928967E0
3.080016583E0,-4.468274117E-2,-4.324722290E-2,2.452224970E0
3.098842521E0,4.835414886E-2,-1.176834106E-3,2.104401827E0
3.117668406E0,-2.438015938E-1,-8.259296417E-2,1.749771833E0
3.136494291E0,-5.812473297E-1,-2.626075745E-1,1.478943110E0
3.155320177E0,-6.780653000E-1,-4.317426682E-1,1.433754206E0
3.174146062E0,-7.473888397E-1,-5.353689194E-1,1.526598215E0
3.192972000E0,-8.081669807E-1,-5.738725662E-1,1.488232136E0
3.211797885E0,-9.415826797E-1,-7.860069275E-1,1.376984596E0
3.230623771E0,-1.212596893E0,-1.096580029E0,1.420319796E0
3.249449656E0,-1.033256531E0,-1.424981117E0,1.391818047E0
3.268275541E0,-8.358323574E-1,-1.619714260E0,1.062138557E0
3.287101479E0,-1.021342993E0,-1.396509171E0,7.022325993E-1
3.305927364E0,-1.296497583E0,-1.013177872E0,2.169046402E-1
3.324753250E0,-1.196446180E0,-1.593055725E-1,-1.988546848E-1
3.343579135E0,-5.613687038E-1,5.500411987E-1,-3.472747803E-1
3.362405021E0,1.854815483E-1,1.037521362E0,5.069756508E-2
3.381230958E0,8.092422485E-1,1.527974129E0,2.691900730E-1
3.400056843E0,1.201814294E0,1.184967995E0,3.111584187E-1
3.418882729E0,1.088125825E0,9.617986679E-1,3.209397793E-1
3.437708614E0,9.769741297E-1,1.458084106E0,5.241737366E-1
3.456534552E0,1.155356288E0,1.458589554E0,8.152856827E-1
3.475360437E0,1.611056447E0,8.304195404E-1,1.100328922E0
3.494186323E0,1.864890218E0,4.915618896E-2,1.017040491E0
3.513012208E0,2.003981113E0,-5.722370148E-1,7.479732037E-1
3.531838146E0,2.221408606E0,-8.446254730E-1,2.635350227E-1
3.550664031E0,2.495212078E0,-7.520589828E-1,-1.054353714E-1
3.569489916E0,2.595211029E0,-3.183364868E-1,-3.933248520E-1
3.588315802E0,2.457890511E0,4.146575928E-2,-9.915003777E-1
3.607141739E0,2.222725391E0,8.890914917E-2,-1.562635064E0
3.625967625E0,2.282443047E0,-2.721595764E-1,-1.830348372E0
3.644793510E0,2.477242708E0,-7.990875244E-1,-1.767449737E0
3.663619396E0,2.536564827E0,-1.088248253E0,-1.496166825E0
3.682445333E0,2.368221760E0,-1.085294724E0,-1.459609270E0
3.701271218E0,2.052030087E0,-7.829694748E-1,-1.438555121E0
3.720097104E0,1.896646500E0,-4.637050629E-1,-1.332563400E0
3.738922989E0,1.718969107E0,3.258161545E-1,-1.090570092E0
3.757748927E0,1.652692318E0,1.111222267E0,-9.531936646E-1
3.776574812E0,1.529954433E0,1.649465561E0,-1.016659975E0
3.795400698E0,1.404886127E0,1.752180099E0,-1.380526066E0
3.814226635E0,1.448348880E0,1.521908760E0,-1.299336195E0
3.833052521E0,1.683150053E0,1.210546494E0,-6.985912323E-1
3.851878406E0,1.827577472E0,1.222388268E0,-2.385902405E-2
3.870704291E0,1.640585423E0,1.675909996E0,5.296916962E-1
3.889530229E0,1.454972267E0,2.002516747E0,1.041023016E0
3.908356114E0,1.054356098E0,2.160433769E0,1.416657209E0
3.927182000E0,6.445487738E-1,1.715357780E0,1.603751779E0
3.946007937E0,1.452373862E-1,1.282594681E0,1.676141977E0
3.964833823E0,-1.084321737E-1,4.785499573E-1,1.986869335E0
3.983659708E0,-2.105329037E-1,-6.497774124E-1,2.359076738E0
4.002485646E0,-3.142306805E-1,-1.826789379E0,2.540666103E0
4.021311531E0,-6.515023708E-1,-2.140205860E0,2.480633259E0
4.040137416E0,-1.304696083E0,-1.407587051E0,2.444134235E0
4.058950229E0,-2.373446465E0,-2.786922455E-2,2.149219036E0
4.077789239E0,-2.816599846E0,6.047887802E-1,2.047347546E0
4.096615125E0,-2.576744556E0,-7.062816620E-2,2.161855698E0
4.115441010E0,-2.397017956E0,-1.121320724E0,2.161573410E0
4.134266948E0,-2.789772511E0,-1.715462208E0,1.723576188E0
4.153092833E0,-3.071823120E0,-1.676913261E0,1.467648149E0
4.171918718E0,-2.859884262E0,-1.460965157E0,1.206640601E0
4.190744656E0,-2.548955917E0,-7.724180222E-1,9.362469912E-1
4.209570541E0,-2.162128448E0,-1.517391205E-1,6.585993767E-1
4.228396479E0,-2.079620123E0,1.721277237E-1,3.041758537E-1
4.247222364E0,-2.230707884E0,2.946214676E-1,2.082328796E-1
4.266048250E0,-2.222496748E0,4.416017532E-1,2.510004044E-1
4.284874187E0,-2.012675047E0,5.491743088E-1,3.061056137E-1
4.303700073E0,-1.577613950E0,7.241296768E-1,5.506453514E-1
4.322525958E0,-9.892172813E-1,8.338527679E-1,7.269423008E-1
4.341351896E0,-6.211017370E-1,6.756877899E-1,6.836340427E-1
4.360177781E0,-3.690198064E-1,6.969308853E-1,4.294679165E-1
4.379003718E0,-4.631954432E-2,8.331413269E-1,1.480817795E-1
4.397829604E0,3.247321248E-1,1.035387993E0,-1.626443863E-1
4.416655541E0,8.669924140E-1,6.294498444E-1,-5.254275799E-1
4.435481427E0,1.577390194E0,-3.492670059E-1,-8.296489716E-1
4.454307312E0,1.872389317E0,-1.224113464E0,-1.287229300E0
4.473133250E0,1.732424259E0,-1.449891090E0,-1.758679986E0
4.491959135E0,1.442583084E0,-1.162180901E0,-1.973818302E0
4.510785073E0,1.160171628E0,-6.447486877E-1,-2.087798357E0
4.529610958E0,1.026526928E0,-1.213521957E-1,-2.154504299E0
4.548436896E0,1.114429235E0,2.713079453E-1,-2.132271528E0
4.567262781E0,1.197792292E0,4.764871597E-1,-2.232966661E0
4.586088666E0,1.133319378E0,3.182125092E-1,-2.253653765E0
4.604914604E0,1.200797439E0,-2.383069992E-1,-1.997240186E0
4.623740489E0,1.223285198E0,-6.175413132E-1,-1.396527290E0
4.642566375E0,8.070583344E-1,-1.208449841E0,-6.505067348E-1
4.661392312E0,9.711706638E-2,-1.816563129E0,1.129724979E-1
4.680218198E0,-6.706445217E-1,-2.019143105E0,9.069247246E-1
4.699044135E0,-1.294716239E0,-1.234921455E0,1.662311792E0
4.717870021E0,-1.672725081E0,1.999578476E-1,2.457282782E0
4.736695958E0,-1.902893782E0,1.162391663E0,2.916279554E0
4.755521843E0,-2.107714415E0,1.198699951E0,3.273926497E0
4.774347781E0,-2.388473988E0,4.527730942E-1,3.332559824E0
4.793173666E0,-2.853587151E0,9.473133087E-2,2.920914888E0
4.811999604E0,-2.990370512E0,-8.382606506E-2,2.300671577E0
4.830825489E0,-2.719093800E0,-3.330907822E-1,1.759952307E0
4.849651427E0,-2.444008350E0,-5.286026001E-2,1.391024590E0
4.868477312E0,-2.300546169E0,4.167671204E-1,1.326512814E0
4.887303250E0,-2.376084805E0,6.950654984E-1,1.319684744E0
4.906129135E0,-2.706418514E0,9.159212112E-1,1.236848593E0
4.924955021E0,-3.162292957E0,1.001571655E0,1.062438726E0
4.943780958E0,-3.460438967E0,1.172783852E0,6.545250416E-1
4.962606896E0,-3.257747412E0,1.464582443E0,6.845951080E-2
4.981432781E0,-2.523770571E0,2.033793449E0,-4.096083641E-1
5.000258718E0,-2.154027462E0,1.865796089E0,-1.117478132E0
5.019084604E0,-1.967714906E0,8.002204895E-1,-2.203274965E0
5.037910489E0,-1.403227806E0,-4.814863205E-1,-3.283364773E0
5.056736427E0,-3.943555355E-1,-1.358329296E0,-4.295895576E0
5.075549239E0,9.886088967E-1,-1.602970600E0,-4.390455723E0
5.094388250E0,2.442439795E0,-1.759513855E0,-3.832394123E0
5.113214135E0,3.554063797E0,-1.347409248E0,-3.349012375E0
5.132040073E0,4.437941551E0,-3.589076996E-1,-3.385253906E0
5.150865958E0,5.076133251E0,3.290891647E-1,-3.279764891E0
5.169691896E0,5.252129555E0,-1.383953094E-1,-3.222595692E0
5.188517781E0,5.027182102E0,-8.068447113E-1,-3.020754576E0
5.207343718E0,4.393757820E0,-8.860607147E-1,-2.879507542E0
5.226169656E0,3.493894577E0,-7.400732040E-1,-2.743193865E0
5.244995541E0,2.346797228E0,-3.015937805E-1,-2.131172180E0
5.263821479E0,1.326025009E0,6.505775452E-2,-1.253485680E0
5.282647364E0,1.415230930E-1,5.455198288E-1,-3.411960602E-1
5.301460177E0,-1.271666884E0,4.969711304E-1,-8.679699898E-2
5.320299187E0,-2.384344816E0,3.225545883E-1,3.360726833E-1
5.339125125E0,-2.618101120E0,8.197164536E-1,6.863677502E-1
5.357951010E0,-1.963521719E0,1.412019730E0,5.605752468E-1
5.376776948E0,-8.076681495E-1,2.377411842E0,6.498277187E-1
5.395602885E0,1.143701375E-1,2.702130318E0,3.326110840E-1
5.414428771E0,7.471004128E-2,2.293397903E0,-2.338888645E-1
5.433254708E0,-1.615790129E-1,1.426724434E0,-6.714687347E-1
5.452080593E0,-4.207625389E-1,5.267677307E-1,-9.978268147E-1
5.470906531E0,-7.999816537E-1,-3.449916840E-2,-1.419107676E0
5.489732416E0,-1.128584385E0,2.359390259E-3,-1.555365324E0
5.508558354E0,-1.217836499E0,2.763624191E-1,-1.482179880E0
5.527384291E0,-1.258884668E0,2.224655151E-1,-1.227000475E0
5.546210177E0,-1.351486564E0,-1.330680847E-1,-1.013518810E0
5.565036114E0,-1.636995792E0,-7.113466263E-1,-8.531713486E-1
5.583862000E0,-1.850484252E0,-1.024228096E0,-7.762784958E-1
5.602687937E0,-1.764901519E0,-9.950933456E-1,-4.161555767E-1
5.621513823E0,-1.312761903E0,-8.538703918E-1,-4.660558701E-2
5.640339760E0,-1.093372345E0,-4.733505249E-1,7.644104958E-2
5.659165698E0,-1.286338568E0,-2.282142639E-2,-2.943589687E-1
5.677991583E0,-1.807351589E0,3.652524948E-1,-6.658790112E-1
5.696817521E0,-2.429440975E0,6.900014877E-1,-9.822702408E-1
5.715643458E0,-2.879027367E0,6.170806885E-1,-1.192178011E0
5.734469343E0,-2.846821070E0,4.858207703E-1,-1.308918476E0
5.753295281E0,-2.288249254E0,2.816610336E-1,-1.135854125E0
5.772121218E0,-1.676981091E0,2.147216797E-1,-7.460955381E-1
5.790947104E0,-1.243288875E0,1.373529434E-1,-2.915341854E-1
5.809773041E0,-1.200033307E0,1.175365448E-1,3.830027580E-2
5.828598979E0,-1.369191289E0,1.124095917E-2,-2.626299858E-2
5.847424864E0,-1.368116617E0,-8.154010773E-2,-2.280287743E-1
5.866250802E0,-9.630336761E-1,-9.169006348E-2,-2.721273899E-1
5.885076739E0,-3.240209222E-1,2.512931824E-3,4.414892197E-2
5.903902625E0,-1.583099365E-3,1.899433136E-2,2.870113850E-1
5.922728562E0,-2.479533106E-1,-4.784965515E-2,1.406807899E-1
5.941554500E0,-4.819771647E-1,6.044101715E-2,1.033389568E-1
5.960380385E0,-6.957651973E-1,2.072811127E-1,1.235790253E-1
5.979206323E0,-8.708686829E-1,3.508672714E-1,1.304686069E-1
5.998032260E0,-9.568697214E-1,4.309024811E-1,5.015873909E-2
6.016858146E0,-9.636501670E-1,4.746255875E-1,4.023694992E-2
6.035684083E0,-8.631166220E-1,4.733695984E-1,4.627656937E-2
6.054510021E0,-7.891130447E-1,4.684467316E-1,-2.244186401E-2
6.073335906E0,-9.107770324E-1,6.337776184E-1,7.474541664E-2
6.092161843E0,-1.035739422E0,8.942985535E-1,6.640553474E-2
6.110987781E0,-1.359079957E0,1.462777138E0,9.910678864E-2
6.129813666E0,-1.636406660E0,1.730099678E0,2.300977707E-3
6.148639604E0,-1.676024675E0,1.551813126E0,1.291949749E-1
6.167465541E0,-1.519565105E0,9.017105103E-1,-2.475214005E-2
6.186291479E0,-1.305559397E0,-1.257095337E-1,2.184896469E-1
6.205117364E0,-1.140608072E0,-1.169606209E0,1.427513361E-1
6.223943302E0,-1.193750381E0,-1.530909538E0,8.929014206E-3
6.242769239E0,-1.223049402E0,-1.382888794E0,-4.475843906E-1
6.261595125E0,-1.204289675E0,-7.269716263E-1,-8.463793993E-1
6.280421062E0,-7.961946726E-1,1.253137589E-1,-1.187980294E0
6.299247000E0,-3.004406095E-1,8.970499039E-1,-1.565356255E0
6.318072937E0,-8.276057243E-2,1.108583450E0,-1.815860987E0
6.336898823E0,2.361335158E-1,6.360969543E-1,-2.014040947E0
6.355724760E0,5.829532743E-1,-1.649570465E-1,-2.030916452E0
6.374550698E0,8.212475777E-1,-8.470172882E-1,-1.949764252E0
6.393376635E0,7.976911664E-1,-8.880939484E-1,-1.683200598E0
6.412202521E0,7.701272368E-1,-4.637393951E-1,-1.350355268E0
6.431028458E0,1.062365770E0,1.272649765E-1,-9.720871449E-1
6.449854396E0,1.437440753E0,5.821199417E-1,-7.883329391E-1
6.468680281E0,1.460482478E0,7.593927383E-1,-8.359616995E-1
6.487506218E0,1.173219204E0,5.566244125E-1,-1.063259363E0
6.506332156E0,8.764621615E-1,3.338298798E-1,-1.182938218E0
6.525158093E0,9.806284308E-1,3.699932098E-1,-1.024759531E0
6.543984031E0,1.128207684E0,6.606130600E-1,-8.832828999E-1
6.562809916E0,1.269924402E0,9.492835999E-1,-7.150108814E-1
6.581635854E0,1.282048464E0,1.162190437E0,-6.474008560E-1
6.600461791E0,1.078897595E0,1.595975876E0,-6.528918743E-1
6.619287729E0,7.473444939E-1,2.002749443E0,-5.693780184E-1
6.638113614E0,3.281739354E-1,1.568640709E0,-2.734575272E-1
6.656926479E0,-7.529157400E-2,-3.528976440E-2,-3.388488293E-2
6.675765489E0,-4.380387664E-1,-1.835059166E0,9.771025181E-2
6.694591427E0,-7.249474525E-1,-3.194749832E0,3.813914061E-1
6.713417364E0,-8.398091793E-1,-3.678857803E0,3.417631388E-1
6.732243250E0,-7.265889645E-1,-2.687868595E0,4.422992468E-1
6.751069187E0,-4.181092978E-1,-9.933938980E-1,6.747512817E-1
6.769882000E0,-2.007784843E-1,9.635019302E-1,8.475207090E-1
6.788721062E0,-4.015736580E-1,2.041387558E0,1.189246058E0
6.807547000E0,-9.230284095E-1,1.770694733E0,1.371397614E0
6.826372885E0,-1.681927800E0,1.333117485E0,1.636239648E0
6.845198823E0,-2.610629559E0,9.830150604E-1,1.831121087E0
6.864024760E0,-3.274326563E0,1.508934975E0,1.964148879E0
6.882850698E0,-2.655551434E0,1.714529037E0,2.398456573E0
6.901676635E0,-1.332282305E0,8.146553040E-1,2.357210875E0
6.920502573E0,-7.332411408E-2,-4.355716705E-1,1.777861834E0
6.939328458E0,6.222422123E-1,-6.149215698E-1,6.592556238E-1
6.958154396E0,5.791613460E-1,1.121149063E-1,-7.330630422E-1
6.976980333E0,5.238412023E-1,9.570922852E-1,-2.042233467E0
6.995806271E0,9.231584072E-1,1.166041374E0,-2.930708885E0
7.014632208E0,1.395026445E0,6.067953110E-1,-3.292308331E0
7.033458146E0,1.581101537E0,-2.910089493E-1,-3.311863899E0
7.052284031E0,1.579366207E0,-1.315450668E0,-2.951605797E0
7.071109968E0,1.290901423E0,-2.206145763E0,-2.613669872E0
7.089935906E0,7.752010822E-1,-2.566733360E0,-2.321665049E0
7.108761843E0,2.764399052E-1,-2.634851933E0,-1.969152212E0
7.127587781E0,-1.204019189E-1,-2.123793602E0,-1.815781713E0
7.146413718E0,-3.944662213E-1,-9.007692337E-1,-1.807972193E0
7.165226531E0,-8.631904721E-1,9.530954361E-1,-1.806126118E0
7.184065593E0,-1.204643250E0,2.190286636E0,-1.745254993E0
7.202891479E0,-1.572665811E0,2.226339340E0,-1.505875111E0
7.221717416E0,-1.513367653E0,1.376160622E0,-4.683525562E-1
7.240543354E0,-1.258456707E0,4.129467010E-1,2.607270479E-1
7.259369291E0,-1.624518275E0,-5.259656906E-1,9.522967339E-1
7.278195229E0,-2.024554253E0,-1.485957146E0,1.629372001E0
7.297021166E0,-1.994524121E0,-1.733456612E0,2.548632145E0
7.315847104E0,-1.642184377E0,-1.237969398E0,3.361514330E0
7.334673041E0,-1.232533693E0,-4.256534576E-2,3.782377005E0
7.353498979E0,-1.168688655E0,1.335451126E0,3.857546329E0
7.372324916E0,-1.328456283E0,2.260497093E0,3.681853056E0
7.391150802E0,-1.211879730E0,2.521321297E0,3.581062078E0
7.409976739E0,-1.003059149E0,2.054103851E0,3.432914019E0
7.428802677E0,-7.764723897E-1,9.946403503E-1,3.192005634E0
7.447628614E0,-5.065085292E-1,-1.750879288E-1,2.823750734E0
7.466454552E0,-9.258538485E-2,-8.578977585E-1,2.574385643E0
7.485280489E0,4.601920843E-1,-1.051901817E0,2.335831642E0
7.504106427E0,6.547061205E-1,-9.039859772E-1,2.066643238E0
7.522932364E0,4.479732215E-1,-5.923080444E-1,1.754290819E0
7.541758302E0,-2.026391029E-2,-1.787300110E-1,1.525425792E0
7.560584239E0,-5.111298561E-1,1.921911240E-1,1.510500550E0
7.579410177E0,-9.660453200E-1,2.521095276E-1,1.453453422E0
7.598236114E0,-1.314463854E0,3.425397873E-1,1.431699276E0
7.617062000E0,-1.492779255E0,3.794603348E-1,1.386871219E0
7.635887937E0,-1.454620123E0,2.941417694E-1,1.484160304E0
7.654713875E0,-1.105729580E0,4.973888397E-2,1.804197669E0
7.673539812E0,-9.126176238E-1,-1.645994186E-1,1.985343099E0
7.692365750E0,-1.047224998E0,-4.313716888E-1,1.783206582E0
7.711191687E0,-1.097230196E0,-6.713914871E-1,1.514694810E0
7.730017625E0,-1.033093452E0,-6.621475220E-1,1.393581390E0
7.748843562E0,-9.436033964E-1,-4.424991608E-1,1.312465191E0
7.767669500E0,-9.891421199E-1,-3.328599930E-1,9.024550915E-1
7.786495437E0,-9.302721024E-1,4.062404633E-1,6.069509983E-1
7.805321375E0,-5.116053224E-1,1.439400673E0,6.757540703E-1
7.824147312E0,-2.213219404E-1,1.935542107E0,5.432803631E-1
7.842973250E0,2.010405660E-1,1.975563049E0,3.569047451E-1
7.861799187E0,6.531552076E-1,9.848432541E-1,1.678228378E-2
7.880625125E0,7.673174739E-1,-9.070873260E-2,-1.877465248E-1
7.899451062E0,7.090460062E-1,-8.168697357E-1,-1.449031830E-1
7.918277000E0,6.668143272E-1,-9.140748978E-1,-9.787797928E-3
7.937102937E0,6.930637360E-1,-3.833503723E-1,-1.509776115E-1
7.955928875E0,7.829836607E-1,-4.248809814E-2,-3.667073250E-1
7.974754812E0,9.284157157E-1,6.548595428E-2,-6.734528542E-1
7.993580750E0,1.330436707E0,1.094999313E-1,-1.074303985E0
8.012406687E0,2.025358438E0,1.181240082E-1,-1.375611186E0
8.031232625E0,2.689732790E0,7.852649689E-2,-1.532665849E0
8.050058562E0,3.155701876E0,-9.552764893E-2,-1.490246177E0
8.068884500E0,3.326405525E0,-2.864484787E-1,-1.398048401E0
8.087710437E0,3.209585905E0,-4.716863632E-1,-1.319498539E0
8.106536375E0,2.808868408E0,-7.139015198E-1,-1.289174676E0
8.125362312E0,2.373860836E0,-9.000759125E-1,-1.345434189E0
8.144188250E0,2.114424706E0,-9.719877243E-1,-1.264199615E0
8.163014187E0,2.054032564E0,-9.023733139E-1,-1.151392937E0
8.181840125E0,2.007182121E0,-8.182945251E-1,-1.082475424E0
8.200666062E0,1.813986659E0,-7.320518494E-1,-1.150627017E0
8.219492000E0,1.597867727E0,-3.746929169E-1,-1.271393776E0
8.238317937E0,1.588796377E0,2.592849731E-2,-1.345219493E0
8.257143875E0,1.671463132E0,4.208211899E-1,-1.235095143E0
8.275969812E0,1.787192345E0,8.857879639E-1,-8.935365677E-1
8.294795750E0,2.070687532E0,1.265933037E0,-5.100667477E-1
8.313621687E0,2.442671299E0,1.387965202E0,1.187562943E-3
8.332447625E0,2.826405764E0,1.257433891E0,4.108538628E-1
8.351273562E0,2.975210667E0,1.285217285E0,4.719727039E-1
8.370099500E0,3.013163805E0,1.399580002E0,5.025846958E-1
8.388925437E0,2.963237286E0,1.337813377E0,3.963990211E-1
8.407751375E0,2.661589622E0,1.002311707E0,3.244736195E-1
8.426577312E0,2.074860096E0,8.241052628E-1,2.616007328E-1
8.445403250E0,1.373186588E0,6.425132751E-1,2.564754486E-1
8.464229187E0,7.003962994E-1,3.634958267E-1,3.156170845E-1
8.483055177E0,2.569904923E-2,-2.041530609E-1,5.700404644E-1
8.501881114E0,-6.521960497E-1,-9.531154633E-1,8.158206940E-1
8.520707052E0,-1.356094599E0,-1.541259289E0,1.102579832E0
8.539532989E0,-2.292886734E0,-1.728353977E0,1.425043344E0
8.558358927E0,-3.256708622E0,-1.747679710E0,1.332271099E0
8.577184864E0,-3.618896246E0,-1.425018787E0,1.565835953E0
8.596010802E0,-3.570832014E0,-8.928928375E-1,1.683477640E0
8.614836739E0,-3.756915808E0,-1.546850204E-1,2.002598763E0
8.633662677E0,-3.579509497E0,2.948493958E-1,1.692725182E0
8.652488614E0,-3.190829039E0,2.758712769E-1,1.199779272E0
8.671314604E0,-3.025018692E0,-1.901960373E-1,2.373638153E-1
8.690140541E0,-2.718379021E0,-3.854761124E-1,-6.777355671E-1
8.708966479E0,-2.821467161E0,-1.903686523E-1,1.032519102E0
8.727792416E0,-1.373576164E0,-3.307590485E-1,1.969581604E0
8.746618354E0,-1.881422162E0,-7.454862595E-1,1.084194422E0
8.765444291E0,-2.255093336E0,-5.402612686E-1,-1.920526028E-1
8.784270229E0,-2.339722633E0,-5.913267136E-1,-6.598281860E-1
8.803096218E0,-2.414725780E0,-6.173171997E-1,2.994866371E-1
8.821922156E0,-2.162490606E0,-5.312395096E-1,1.013795376E0
8.840748093E0,-2.540479183E0,-2.532119751E-1,1.571719646E0
8.859574031E0,-2.840704441E0,5.062026978E-1,1.189533710E0
8.878399968E0,-3.045353889E0,1.667198181E0,8.065719604E-1
8.897225958E0,-3.023504019E0,2.986467361E0,6.289958954E-1
8.916051896E0,-1.797527313E0,3.869157791E0,-2.874102592E-1
8.934877833E0,-6.786806583E-1,2.923043251E0,-7.356090546E-1
8.953703771E0,-6.281614304E-2,1.135231018E0,-3.724799156E-1
8.972529708E0,7.445328236E-1,-3.655090332E-1,-4.652724266E-1
8.991355646E0,1.607418060E0,-5.461959839E-1,-3.685159683E-1
9.010181635E0,2.663352489E0,5.557155609E-2,-5.395827293E-1
9.029007573E0,3.140945911E0,1.248317242E0,-1.304307938E0
9.047833510E0,2.626277685E0,1.704752922E0,-1.906219006E0
9.066659448E0,1.850294590E0,1.692122936E0,-1.907444239E0
9.085485385E0,1.157067299E0,1.768850803E0,-1.519168615E0
9.104311375E0,1.160713673E0,1.447368145E0,-7.734861374E-1
9.123137312E0,1.193196774E0,1.501317978E0,1.279778481E-1
9.141963250E0,1.919636250E0,7.553787231E-1,-1.206861973E0
9.160789187E0,2.533952236E0,-8.166837692E-1,-1.050288200E0
9.179615125E0,8.890748024E-1,-1.301802874E0,8.494672775E-1
9.198441062E0,-4.173979759E-1,-1.993381023E0,1.361380100E0
9.217267000E0,-9.373307228E-1,-2.455198765E0,7.143888474E-1
9.236092989E0,-1.768516541E0,-1.651772261E0,5.832605362E-1
9.254905802E0,-3.114210129E0,-1.259867668E0,7.234625816E-1
9.273744864E0,-4.105364799E0,-1.824952006E0,2.448568344E-1
9.292570802E0,-3.936583519E0,-1.937742233E0,-3.413357735E-1
9.311396739E0,-3.295690060E0,-1.329062223E0,-1.201169014E0
9.330222677E0,-2.862316132E0,-9.283649921E-1,-1.982740879E0
9.349048666E0,-2.833439827E0,-6.913511753E-1,-1.475930214E0
9.367874604E0,-2.719367027E0,-4.655537605E-1,-4.280962944E-1
9.386700541E0,-3.083980560E0,-3.938136101E-1,-1.110816002E-1
9.405526479E0,-3.890593529E0,-1.135954857E-1,-5.562090874E-1
9.424352416E0,-4.653132439E0,7.085225582E-1,-7.450528145E-1
9.443178406E0,-4.783877373E0,1.976630449E0,-2.668285370E-1
9.462004343E0,-4.739419937E0,2.848834515E0,2.645969391E-3
9.480830281E0,-4.572312355E0,3.132198095E0,1.463966370E-1
9.499656218E0,-3.365599632E0,2.595654249E0,-2.326445580E-1
9.518482156E0,-1.569409370E0,2.191760063E0,-1.613568306E0
9.537308146E0,-6.146926880E-1,3.717756748E0,-2.305242538E0
9.556134083E0,5.461235046E-1,5.341415882E0,-2.454544783E0
9.574960021E0,1.983177662E0,5.089708328E0,-2.505458593E0
9.593785958E0,1.568937778E0,5.432070732E0,-1.701079369E0
9.612611948E0,4.006128311E-1,5.599164486E0,-6.456985474E-1
9.631437885E0,-2.950925827E-1,5.039096832E0,-8.899481297E-1
9.650263823E0,-8.545780182E-2,5.048899651E0,-1.533291101E0
9.669089760E0,2.376651764E-1,4.320146561E0,-1.925997257E0
9.687915750E0,-1.495170593E-2,3.007822990E0,-2.435534477E0
9.706741687E0,-3.606910706E-1,2.971301556E0,-3.638804197E0
9.725567625E0,-8.325757980E-1,4.331535816E0,-3.380293131E0
9.744393562E0,-9.660692215E-1,5.085681915E0,-2.559551716E0
9.763219552E0,-6.646156311E-1,4.660349846E0,-1.766822696E0
9.782045489E0,-6.440558434E-1,4.593989849E0,-8.372459412E-1
9.800871427E0,-1.147885323E0,5.266833782E0,-7.156443596E-2
9.819697364E0,-1.241396904E0,5.092804432E0,-4.601120949E-2
9.838523354E0,-5.980916023E-1,4.107457161E0,5.702457428E-1
9.857349291E0,7.432961464E-1,3.155873299E0,1.092824459E0
9.876175229E0,1.817694187E0,2.897168636E0,7.112612724E-1
9.895001166E0,2.689808369E0,3.037354946E0,5.150947571E-1
9.913827104E0,3.129412889E0,3.225073338E0,7.042536736E-1
9.932653093E0,3.188856363E0,3.047228336E0,1.232774258E0
9.951479031E0,3.054178953E0,2.570818186E0,1.762004852E0
9.970304968E0,4.321337223E0,2.313898325E0,1.814549446E0
9.989117833E0,6.388454437E0,1.812281132E0,2.362554073E0
1.000795690E1,6.760125160E0,5.660071373E-1,3.843133926E0
1.002678283E1,6.605400085E0,-1.556396484E-1,3.822143078E0
1.004560877E1,6.346992970E0,8.510277271E-1,3.318598747E0
1.006443476E1,5.136171341E0,1.658700466E0,2.946386814E0
1.008326070E1,3.644166946E0,1.574309111E0,1.719794273E0
1.010207351E1,1.906352282E0,1.809759736E0,-4.836578369E-1
1.012091257E1,9.947137833E-1,2.610411644E0,-2.013125420E-1
1.013973856E1,1.210791111E0,3.065637350E0,4.800877571E-1
1.015856450E1,1.515048027E0,3.387159348E0,5.532760620E-1
1.017739044E1,1.447848797E0,3.124996424E0,-1.458849907E-1
1.019621643E1,9.757266045E-1,3.218513966E0,-3.724350929E-1
1.021504236E1,7.596254349E-2,2.253310919E0,2.622575760E-1
1.023386830E1,-3.674826622E-1,2.082582951E0,1.246961117E0
1.025269424E1,-4.681134224E-1,3.404603481E0,1.303159714E0
1.027152023E1,-9.915356636E-1,4.307662487E0,1.033226490E0
1.029034617E1,-2.058847427E0,4.011552811E0,1.661157608E-2
1.030917210E1,-2.001323223E0,2.776448250E0,-1.335052490E0
1.032799809E1,-9.990448952E-1,2.024490356E0,-7.141933441E-1
1.034682403E1,1.429862976E-1,2.587380171E0,8.524451256E-1
1.036564997E1,1.301239967E0,2.283432722E0,2.058816910E0
1.038447596E1,2.117631912E0,3.203302860E0,2.028733253E0
1.040330190E1,1.410943985E0,3.354093552E0,8.196244240E-1
1.042212783E1,-1.066089630E0,3.565989017E0,-1.593189240E-1
1.044094070E1,-3.254451752E0,3.556034565E0,-1.141667843E0
1.045977976E1,-4.152227879E0,3.019692421E0,-2.312579632E0
1.047860570E1,-4.935229778E0,2.098474026E0,-3.376941681E0
1.049743169E1,-5.790594578E0,1.376127243E0,-3.390118361E0
1.051625763E1,-5.200320721E0,1.942235231E0,-3.879053593E0
1.053508361E1,-4.480516911E0,2.268888235E0,-3.650226355E0
1.055390955E1,-4.132194996E0,1.300742388E0,-3.385760784E0
1.057273549E1,-3.941301346E0,3.466236591E-1,-3.060068130E0
1.059156148E1,-4.606713295E0,1.025842667E0,-3.181005955E0
1.061038742E1,-5.286711693E0,7.926189899E-1,-3.427361488E0
1.062921335E1,-5.744592190E0,-2.970523834E-1,-3.456084728E0
1.064803934E1,-5.925770283E0,-3.210151196E-1,-2.985633373E0
1.066686528E1,-5.236512184E0,-1.356606483E-1,-2.514453411E0
1.068569127E1,-4.736070633E0,1.117296219E-1,-2.007698059E0
1.070451721E1,-3.993866920E0,-5.290136337E-1,-1.588147163E0
1.072334320E1,-2.944510937E0,-5.208175182E-1,-1.143703461E-1
1.074216914E1,-3.111391783E0,-4.458293915E-1,7.635192871E-1
1.076099507E1,-3.408445358E0,6.644949913E-1,5.487194061E-1
1.077982106E1,-3.830550194E0,9.948735237E-1,1.514244080E-2
1.079864700E1,-4.146550179E0,7.035183907E-1,2.752685547E-2
1.081747299E1,-3.131158829E0,-7.746667862E-1,8.182907104E-1
1.083629893E1,-2.667198420E0,-4.119734764E-1,8.943357468E-1
1.085512486E1,-1.898012996E0,1.383247375E-1,8.521718979E-1
1.087395085E1,-1.000185013E0,1.555462360E0,7.652721405E-1
1.089277679E1,-6.591454744E-1,2.533478260E0,7.962741852E-1
1.091160278E1,-2.467956543E-1,2.771604061E0,4.044437408E-1
1.093042872E1,9.253953695E-1,1.714496613E0,1.508111954E-1
1.094925466E1,6.923078895E-1,1.831891537E0,-3.259205818E-1
1.096808065E1,-7.760691643E-2,1.210756779E0,-1.039550781E0
1.098690658E1,-1.647894382E-1,2.123665810E-1,-2.092933655E0
1.100573257E1,4.073403478E-1,3.353404999E-2,-2.468564510E0
1.102455851E1,1.060551167E0,8.291521072E-1,-1.973287582E0
1.104338445E1,1.765809536E0,1.203719616E0,-1.523012161E0
1.106221044E1,2.005876780E0,1.191766739E0,-1.413803577E0
1.108103638E1,1.799833417E0,1.445788860E0,-1.216628551E0
1.109986236E1,1.328346491E0,1.873705387E0,-1.193232536E0
1.111868830E1,1.065503120E0,1.844669342E0,-1.529897213E0
1.113751429E1,9.797976613E-1,1.558345795E0,-1.700631142E0
1.115634023E1,9.665797949E-1,1.503634930E0,-1.511395931E0
1.117516622E1,1.018523216E0,1.654425144E0,-1.012391567E0
1.119399216E1,1.011396646E0,1.713847160E0,-1.974754333E-1
1.121281809E1,9.175434113E-1,1.214784145E0,5.573186874E-1
1.123164408E1,5.894012451E-1,9.078116417E-1,1.210261345E0
1.125047002E1,-1.712660789E-1,1.254335880E0,1.892612457E0
1.126929601E1,-1.025726318E0,1.410461426E0,1.945363045E0
1.128812195E1,-1.782956123E0,1.088639259E0,1.426752090E0
1.130694794E1,-1.968311787E0,-7.470130920E-2,8.688297272E-1
1.132577388E1,-1.550892115E0,-1.703083038E0,9.840545654E-1
1.134459981E1,-1.427385092E0,-2.591068983E0,1.406959534E0
1.136342580E1,-1.423686743E0,-3.084734917E0,1.221581459E0
1.138225174E1,-1.147452354E0,-3.079412937E0,1.109533310E0
1.140107773E1,-8.728013039E-1,-2.392665863E0,1.539235115E0
1.141990367E1,-6.637675762E-1,-1.899616480E0,1.535461426E0
1.143872966E1,-3.103512526E-1,-2.332471848E0,9.860057831E-1
1.145755559E1,-2.625906467E-2,-2.929574251E0,4.987659454E-1
1.147638153E1,1.118193865E-1,-2.653517485E0,3.746280670E-1
1.149520752E1,3.676601648E-1,-1.991219521E0,7.337474823E-1
1.151403351E1,5.305022001E-1,-1.517471075E0,8.304605484E-1
1.153285945E1,2.115406990E-1,-3.874502182E-1,-1.027584076E-1
1.155168538E1,-3.996710777E-1,5.744156837E-1,-1.170146942E0
1.157051138E1,-7.148361206E-1,9.040760994E-1,-1.836337090E0
1.158933731E1,-8.262603283E-1,1.077550411E0,-2.117759228E0
1.160816330E1,-8.721241951E-1,1.845554590E0,-1.991248608E0
1.162698924E1,-3.393406868E-1,2.751083136E0,-1.431764603E0
1.164581523E1,5.057792664E-1,3.062566996E0,-8.126182556E-1
1.166464117E1,1.091192007E0,2.383430719E0,-6.396317482E-1
1.168346716E1,1.249408484E0,2.106439352E0,-7.525868416E-1
1.170229309E1,9.159018993E-1,2.985932589E0,-1.144023418E0
1.172111908E1,8.764710426E-1,3.607289314E0,-1.541918755E0
1.173994502E1,1.614847422E0,3.711256266E0,-9.183802605E-1
1.175877101E1,4.173903465E0,3.181708813E0,-1.030535221E0
1.177759695E1,7.165956497E0,2.979003668E0,-1.214189529E0
1.179640981E1,9.466252327E0,2.384189844E0,-1.327369690E0
1.181524888E1,1.036863518E1,2.090867281E0,-1.351774693E0
1.183407486E1,1.077646828E1,4.325812817E0,-1.410910130E0
1.185288768E1,1.162050819E1,6.830627918E0,-2.695908070E0
1.187172679E1,8.145586967E0,8.135211945E0,-4.344246387E0
1.189055273E1,1.882070065E0,9.171160698E0,-6.120362759E0
1.190936559E1,-2.225838661E0,8.026403427E0,-6.895827293E0
1.192820466E1,-4.420849323E0,6.263713837E0,-5.735127449E0
1.194703065E1,-4.853532791E0,6.379407883E0,-1.568345308E0
1.196584351E1,-2.558118820E0,8.274321556E0,3.771123409E0
1.198468257E1,3.004393101E0,8.322373390E0,6.250139236E0
1.200350856E1,4.043857574E0,9.359166145E0,4.070668221E0
1.202232143E1,-8.613123894E-1,1.194364166E1,1.553354263E0
1.204116049E1,-5.926111221E0,1.213181877E1,-1.357034922E0
1.205998643E1,-9.513392448E0,1.169264889E1,-2.601559401E0
1.207881242E1,-1.112748146E1,1.086976242E1,-3.781090260E0
1.209763841E1,-1.077510262E1,1.059721756E1,-5.876777172E0
1.211646434E1,-1.015392303E1,1.041570663E1,-7.734131813E0
1.213527721E1,-8.817907333E0,9.682238579E0,-8.760862350E0
1.215411632E1,-7.914025307E0,8.911296844E0,-9.345211983E0
1.217294226E1,-8.007863998E0,7.129271507E0,-9.732098579E0
1.219175512E1,-8.011484146E0,4.437201500E0,-1.012471485E1
1.221059419E1,-7.432580948E0,2.565505981E0,-9.846672058E0
1.222942018E1,-7.093518257E0,9.877231121E-1,-9.722536087E0
1.224823304E1,-6.855441093E0,2.928376198E-1,-9.139292717E0
1.226707210E1,-5.592985153E0,-3.338878155E-1,-6.512386322E0
1.228589809E1,-3.977910995E0,3.901892900E-1,-3.884647369E0
1.230471091E1,-3.510604858E0,9.433820248E-1,-1.852522373E0
1.232355002E1,-4.149374962E0,4.496090412E-1,-2.028798103E0
1.234237596E1,-4.679736137E0,-1.221586585E0,-3.913864613E0
1.236120195E1,-4.611653328E0,-1.507911444E0,-4.754076004E0
1.238002794E1,-4.302174091E0,-8.193144798E-1,-4.514536381E0
1.239885388E1,-3.436308622E0,-2.272063792E-1,-4.869645119E0
1.241766674E1,-1.204096913E0,-8.465524912E-1,-4.560770035E0
1.243650580E1,9.351167679E-1,-1.314237118E0,-3.390200138E0
1.245533179E1,3.354929924E0,-8.915353417E-1,-1.753293037E0
1.247414466E1,4.055183411E0,-1.399668455E-1,6.102294922E-1
1.249298372E1,2.959533215E0,-8.511395454E-1,6.301021576E-1
1.251180971E1,-1.889852285E-1,3.299084604E-1,-3.025522232E-1
1.253062252E1,-4.069813728E0,8.429225087E-1,-1.596614838E0
1.254946164E1,-6.118652344E0,2.340745926E-2,-2.191201210E0
1.256828757E1,-6.549036503E0,-2.141594887E-2,-2.208103180E0
1.258710044E1,-5.029289246E0,3.753708005E-1,-2.002511024E0
1.260593950E1,-2.934619665E0,5.555310249E-1,-1.081705093E0
1.262476549E1,-2.464391232E0,8.730866909E-1,-4.683380127E-1
1.264359148E1,-3.869465590E0,1.305436969E0,-1.165249825E0
1.266241742E1,-4.305446625E0,5.979660749E-1,-2.168808460E0
1.268124341E1,-2.167194605E0,1.554245710E0,-9.676170349E-2
1.270006934E1,-1.274986744E0,1.077181697E0,2.300129890E0
1.271889533E1,-4.037528038E0,3.566764891E-1,2.960510254E-1
1.273772132E1,-4.037126541E0,1.008668542E0,-7.657642365E-1
1.275653419E1,-1.919859052E0,2.030384541E0,1.168354988E0
1.277537325E1,-2.502584457E-2,1.977921128E0,1.244451523E0
1.279419919E1,5.476994514E-1,1.257817388E0,8.890390396E-1
1.281301205E1,1.853808045E0,1.978724480E0,6.450977325E-1
1.283185117E1,4.744864464E0,1.775023699E0,1.274538994E0
1.285067710E1,4.947357178E0,7.084794641E-1,-4.718971252E-2
1.286948997E1,5.899513960E-1,-6.501736641E-1,-3.018302917E0
1.288832908E1,-4.429229736E0,-1.084080219E0,-5.648110867E0
1.290715502E1,-8.043784142E0,-1.446139097E0,-6.528836727E0
1.292596788E1,-9.480287552E0,-2.417849541E0,-7.226525784E0
1.294480700E1,-9.917179108E0,-2.031937361E0,-7.734650612E0
1.296363294E1,-9.965234756E0,-1.822606802E0,-8.435765266E0
1.298244580E1,-9.067832947E0,-7.872814536E-1,-7.097291470E0
1.300128492E1,-7.592365265E0,1.503424406E0,-6.159415245E0
1.302011085E1,-6.836801529E0,5.001719475E0,-5.604560852E0
1.303893684E1,-6.923339844E0,5.443653584E0,-5.868494987E0
1.305776283E1,-6.455276489E0,3.832988262E0,-7.184514523E0
1.307658882E1,-5.027511597E0,6.596755028E0,-7.119852543E0
1.309540169E1,-4.037449837E0,1.085344028E1,-3.300400734E0
1.311424075E1,-4.845526218E-1,8.737019539E0,-1.177542210E0
1.313306674E1,1.464385033E0,8.982114792E0,3.059339523E-1
1.315189268E1,1.984335661E0,7.781518459E0,5.966410637E-1
1.317071867E1,1.732804775E0,6.263962269E0,9.880285263E-1
1.318954466E1,9.046177864E-1,5.453240871E0,1.361689568E0
1.320835752E1,-1.045198441E-1,6.083381653E0,2.283936501E0
1.322719658E1,-1.362971306E0,6.241038799E0,1.465654373E0
1.324602257E1,-1.270226479E0,4.965066910E0,3.666877747E-1
1.326484851E1,-6.165804863E-1,4.176783562E0,6.281518936E-2
1.328367450E1,4.765734673E-1,3.939537048E0,1.513033390E0
1.330250049E1,1.460692167E0,3.738743782E0,1.807617664E0
1.332132648E1,3.019210100E0,2.957252026E0,2.194648743E0
1.334015242E1,3.910474300E0,2.669443130E0,2.124029160E0
1.335897841E1,4.021584988E0,2.535187721E0,1.741092205E0
1.337780440E1,3.512779236E0,2.716631413E0,1.165684223E0
1.339663033E1,2.823301554E0,2.809434414E0,4.273662567E-1
1.341545632E1,2.429908276E0,3.325544834E0,-3.734059334E-1
1.343428231E1,2.207062006E0,3.482311726E0,-8.716263771E-1
1.345310830E1,1.763231277E0,3.249643326E0,-1.257770061E0
1.347193424E1,1.705027819E0,2.611759663E0,-1.308130026E0
1.349076023E1,1.938452959E0,2.214961529E0,-1.033006668E0
1.350958622E1,2.135438681E0,2.150173187E0,-2.960271835E-1
1.352841216E1,1.952381372E0,2.493761063E0,2.640824318E-1
1.354723815E1,1.188667059E0,2.461839199E0,6.006240845E-2
1.356606414E1,1.822261572E0,1.618462563E0,5.255680084E-1
1.358489013E1,1.458739996E0,6.744861603E-1,1.477515221E0
1.360371611E1,6.276416779E-2,-1.006489754E0,3.856649399E-1
1.362254205E1,-3.603582382E-1,-8.560914993E-1,-8.949775696E-1
1.364136804E1,6.971645355E-2,1.041804790E0,-7.601540089E-1
1.366019403E1,9.255490303E-1,1.937276840E0,-1.756606102E-1
1.367902002E1,1.475204945E0,2.479662418E0,-1.147298813E-1
1.369784596E1,1.113465309E0,2.909108162E0,-5.573873520E-1
1.371665882E1,9.035506248E-1,1.612900257E0,-1.055915356E0
1.373549794E1,9.803366661E-1,-4.519958496E-1,-1.030660391E0
1.375432388E1,8.003637791E-1,-1.088639736E0,-7.831077576E-1
1.377314986E1,3.473830223E-1,-1.332739830E0,-6.100778580E-1
1.379197585E1,7.187747955E-2,-2.183790207E0,-5.152173042E-1
1.381080184E1,-1.810412407E-1,-2.526629448E0,-3.013811111E-1
1.382962783E1,-6.251940727E-1,-2.594439983E0,7.842350006E-2
1.384845377E1,-1.020616055E0,-2.981980324E0,4.207262993E-1
1.386727976E1,-1.279492855E0,-2.892989159E0,5.988264084E-1
1.388610575E1,-1.284425735E0,-2.456794262E0,5.861678123E-1
1.390493169E1,-9.963393211E-1,-1.741200447E0,3.918838501E-1
1.392375768E1,-7.293996811E-1,-9.826087952E-1,2.749743462E-1
1.394258367E1,-3.984246254E-1,-4.754047394E-1,7.375001907E-2
1.396140966E1,-5.005950928E-1,2.883014679E-1,-1.107115746E-1
1.398023565E1,-1.062744617E0,4.615740776E-1,-1.185167551E0
1.399904851E1,-1.377011776E0,5.714988708E-1,-3.151629210E0
1.401788757E1,-7.016553879E-1,9.251837730E-1,-4.356920242E0
1.403671356E1,5.344839096E-1,3.973321915E-1,-3.466499805E0
1.405553955E1,1.104638338E0,1.550211906E-1,-2.695928097E0
1.407436549E1,1.739194393E0,1.045705795E0,-1.247100830E0
1.409319148E1,1.938178062E0,1.944593430E0,1.481900930E0
1.411200434E1,6.527705193E-1,3.766615868E0,2.358997345E0
1.413084346E1,-5.981884003E-1,5.789546967E0,2.445565224E0
1.414966945E1,-7.461562157E-1,7.636945248E0,2.642420530E0
1.416848231E1,-3.054647446E-1,8.336200714E0,4.569660664E0
1.418732138E1,-3.448500633E-1,7.513282776E0,6.940464020E0
1.420614736E1,1.650339603E0,5.639993191E0,7.751979828E0
1.422496023E1,5.288766384E0,4.840433121E0,5.790944099E0
1.424379934E1,5.825872898E0,6.291155338E0,3.617002964E0
1.426262533E1,5.432276249E0,6.585838318E0,-1.052331924E-1
1.428143820E1,6.368471622E0,6.007977009E0,-2.396886110E0
1.430027726E1,7.519687653E0,6.953989506E0,-1.357872009E0
1.431910325E1,6.362394333E0,8.657297134E0,-2.751036644E0
1.433791611E1,4.101121426E0,9.805475235E0,-5.711760044E0
1.435675523E1,2.761588335E0,1.048378563E1,-7.342526436E0
1.437558117E1,2.168294907E0,1.035877419E1,-9.545516014E0
1.439440716E1,1.478760123E0,9.999588013E0,-1.060272789E1
1.441323315E1,9.943630695E-1,9.960138321E0,-1.108101559E1
1.443205914E1,8.799570799E-1,1.004390335E1,-1.074909687E1
1.445088513E1,9.456841946E-1,1.028700256E1,-1.092059612E1
1.446971111E1,9.270232916E-1,1.078899193E1,-1.165630245E1
1.448853705E1,4.889687300E-1,1.276687050E1,-1.309773445E1
1.450734992E1,-1.747864485E0,1.588658619E1,-1.518345070E1
1.452618903E1,-5.186387062E0,1.419680977E1,-1.614747047E1
1.454501502E1,-4.377710819E0,1.225613594E1,-1.590419006E1
1.456382788E1,-5.160231590E-1,1.157996941E1,-1.425192547E1
1.458266700E1,7.650797963E-1,1.090720463E1,-1.328563786E1
1.460149299E1,-1.286323667E0,1.111560345E1,-1.313654232E1
1.462030585E1,-4.406250954E0,1.174982834E1,-1.352459335E1
1.463914492E1,-6.521460533E0,1.274788475E1,-1.309867477E1
1.465797091E1,-7.092104912E0,1.276605034E1,-1.202764702E1
1.467679690E1,-6.800539970E0,1.145375633E1,-1.079338646E1
1.469562288E1,-6.502423286E0,9.238403320E0,-9.839152336E0
1.471444888E1,-6.533553123E0,6.902513504E0,-9.144702911E0
1.473326174E1,-6.655877590E0,4.713170052E0,-8.816541672E0
1.475210085E1,-6.659368038E0,2.749233246E0,-8.256424904E0
1.477092684E1,-5.867257595E0,1.894227028E0,-7.172857285E0
1.478975278E1,-4.328661919E0,1.820378304E0,-6.406462669E0
1.480857877E1,-3.474630356E0,1.962166786E0,-6.563981056E0
1.482740476E1,-3.334645271E0,2.039697647E0,-7.251513481E0
1.484623075E1,-3.165685892E0,2.160160065E0,-7.626585007E0
1.486505674E1,-3.073719025E0,1.955721855E0,-7.949269295E0
1.488388273E1,-3.074657440E0,2.323705673E0,-7.639935493E0
1.490270872E1,-2.971356869E0,2.900292397E0,-6.937007427E0
1.492153471E1,-2.779421091E0,3.473656654E0,-6.055133820E0
1.494036070E1,-2.635201454E0,3.400273323E0,-4.915018082E0
1.495918664E1,-2.342545271E0,2.984700203E0,-3.909952164E0
1.497801263E1,-2.390883684E0,2.497413635E0,-3.051449776E0
1.499683861E1,-2.860844612E0,1.801418304E0,-2.646809101E0
1.501566460E1,-3.313209772E0,1.027871132E0,-2.642126799E0
1.503449059E1,-3.496786833E0,4.643974304E-1,-2.769512177E0
1.505331658E1,-3.235703230E0,-2.125530243E-1,-3.045094967E0
1.507214257E1,-2.642017603E0,-6.872425079E-1,-3.333250523E0
1.509096856E1,-1.848583460E0,-8.467483521E-1,-3.353934526E0
1.510979450E1,-1.222245693E0,-6.320362091E-1,-3.253070116E0
1.512862049E1,-9.266108274E-1,1.066875458E-1,-3.412261248E0
1.514744648E1,-7.636849880E-1,6.059131622E-1,-4.330626965E0
1.516627247E1,-1.092044353E0,9.052858353E-1,-4.732404709E0
1.518509846E1,-1.482963800E0,1.324524879E0,-5.240521908E0
1.520392445E1,-2.061497450E0,2.032527924E0,-5.277790546E0
1.522275044E1,-2.412266016E0,2.766578674E0,-5.150675297E0
1.524157643E1,-2.721701145E0,2.878071785E0,-4.806941032E0
1.526040242E1,-3.187154293E0,2.400538445E0,-4.607491493E0
1.527922841E1,-3.866384745E0,2.215399742E0,-4.613977432E0
1.529805434E1,-4.847094536E0,2.071909904E0,-4.819710732E0
1.531688033E1,-5.606057644E0,1.627562523E0,-4.902401924E0
1.533570632E1,-5.991923809E0,1.646996498E0,-4.077002525E0
1.535453231E1,-6.200831413E0,1.141727448E0,-3.750474215E0
1.537335830E1,-6.670147419E0,3.767299652E-1,-3.491579771E0
1.539218429E1,-6.905648232E0,-5.217170715E-2,-3.444868803E0
1.541101028E1,-6.629213333E0,1.459398270E-1,-3.146935225E0
1.542983627E1,-5.810848236E0,7.542877197E-1,-2.313485622E0
1.544866226E1,-4.851306915E0,1.117493629E0,-1.595809579E0
1.546748825E1,-4.103396893E0,8.087005615E-1,-1.175966263E0
1.548631424E1,-3.712547779E0,6.640262604E-1,-1.191244841E0
1.550514023E1,-3.043118477E0,1.681070328E-1,-1.232044578E0
1.552396617E1,-2.454968691E0,-5.756969452E-1,-1.517308474E0
1.554279216E1,-2.433975220E0,-6.706218719E-1,-1.145732164E0
1.556161815E1,-2.364699841E0,-5.693607330E-1,-4.487700462E-1
1.558044414E1,-1.968915701E0,-6.028175354E-3,2.424190044E-1
1.559927012E1,-1.588394403E0,6.688976288E-2,1.167390823E0
1.561809611E1,-9.394050837E-1,-2.892913818E-1,1.528081059E0
1.563692210E1,-5.174736977E-1,-4.379119873E-1,1.307088614E0
1.565574809E1,-2.747564912E-1,5.825042725E-3,7.427092791E-1
1.567457408E1,-8.934718370E-2,5.545921326E-1,-2.892333269E-1
1.569340007E1,5.527877808E-2,6.241340637E-1,-1.281554699E0
1.571222606E1,4.891748428E-1,7.226018906E-1,-1.634150386E0
1.573105205E1,1.287420154E0,6.483240128E-1,-2.182883978E0
1.574987804E1,1.164322853E0,1.199623108E0,-2.455925226E0
1.576870403E1,9.358068109E-1,2.256677628E0,-1.754798412E0
1.578753002E1,1.251866579E0,3.487025261E0,-2.252757549E-1
1.580635601E1,1.394634962E0,3.247387886E0,1.074498415E0
1.582518200E1,9.309109449E-1,1.198299408E0,1.164767981E0
1.584400799E1,-1.145134568E-1,-6.176242828E-1,6.059060097E-1
1.586283398E1,-1.430107117E0,-1.678903103E0,-2.442011833E-1
1.588165992E1,-2.197819471E0,-2.656402588E0,2.797009945E-1
1.590048596E1,-1.993461251E0,-3.077262402E0,1.298956871E0
1.591931190E1,-1.285991192E0,-2.356420040E0,2.118760109E0
1.593813794E1,-1.269395828E0,-8.996629715E-1,2.490040541E0
1.595696388E1,-1.886010647E0,1.200027466E-1,1.440847874E0
1.597578986E1,-2.579766512E0,2.643737793E-1,9.582452774E-1
1.599461585E1,-2.508208752E0,-4.866218567E-2,1.179258347E0
1.601344184E1,-2.132821083E0,4.409027100E-2,1.267179966E0
1.603226783E1,-2.046121836E0,3.960695267E-1,1.750920773E0
1.605109382E1,-1.845222950E0,2.577142715E-1,1.676399469E0
1.606991981E1,-1.821862698E0,-2.012710571E-1,1.500771761E0
1.608874580E1,-1.906178474E0,-6.420240402E-1,1.361351490E0
1.610757179E1,-1.923809886E0,-1.563615799E0,1.001290083E0
1.612639778E1,-1.722034454E0,-1.980240345E0,3.716881275E-1
1.614522377E1,-1.105852246E0,-1.244028091E0,1.124763489E-2
1.616404976E1,-3.337484002E-1,1.773719788E-1,-2.070782185E-1
1.618287575E1,2.959441841E-1,1.606133461E0,-5.968985558E-1
1.620170179E1,7.471185327E-1,2.231808662E0,-8.190326691E-1
1.622052773E1,6.630139351E-1,1.596680641E0,-1.415710330E0
1.623935372E1,5.685753226E-1,6.942558289E-1,-1.945848703E0
1.625817971E1,1.111756086E0,3.357343674E-1,-1.916010380E0
1.627700575E1,1.515342951E0,-5.296611786E-2,-1.218589544E0
1.629583169E1,1.411767006E0,-8.704910278E-1,-9.785141945E-1
1.631465773E1,1.094574690E0,-1.141917229E0,-8.668711185E-1
1.633348367E1,7.869864106E-1,-1.275674820E0,-1.046230435E0
1.635230971E1,1.150842607E-1,-9.215745926E-1,-8.712713718E-1
1.637113570E1,-4.230196178E-1,7.055759430E-2,-7.067334652E-1
1.638996169E1,-9.936822653E-1,1.327840805E0,-2.562749386E-1
1.640878768E1,-1.598642349E0,1.790817261E0,5.124807358E-2
1.642761367E1,-2.455969334E0,7.622890472E-1,2.060995102E-1
1.644643966E1,-2.960455894E0,-4.441642761E-1,2.399959564E-1
1.646526565E1,-2.693501234E0,-1.153142929E0,4.354557991E-1
1.648409164E1,-2.134283781E0,-1.806374550E0,1.148868799E0
1.650291763E1,-1.416370153E0,-2.018270493E0,2.007775307E0
1.652174361E1,-7.364856005E-1,-1.641920090E0,2.082019806E0
1.654056960E1,-8.765898943E-1,-6.823205948E-1,1.743226767E0
1.655939559E1,-1.191259384E0,4.081926346E-1,1.387707949E0
1.657822158E1,-1.285464048E0,9.795255661E-1,1.381957769E0
1.659704757E1,-1.042848587E0,1.459575653E0,1.611402512E0
1.661587356E1,-5.990708470E-1,1.670564651E0,2.034121752E0
1.663469955E1,-3.775390387E-1,9.943046570E-1,2.217093468E0
1.665352554E1,-6.292629242E-2,-3.366832733E-1,2.422706604E0
1.667235153E1,3.583138585E-1,-1.049768448E0,2.490585089E0
1.669117752E1,7.629433870E-1,-8.670997620E-1,2.488311768E0
1.671000351E1,8.908078671E-1,-1.819353104E-1,2.388368130E0
1.672882955E1,8.443417549E-1,5.187034607E-1,2.259710073E0
1.674765554E1,8.483721614E-1,7.601757050E-1,2.128074169E0
1.676648153E1,6.849226952E-1,6.789064407E-1,1.887352705E0
1.678530752E1,4.473088980E-1,4.208879471E-1,1.735800266E0
1.680413351E1,1.330872178E-1,3.423929214E-1,1.686502934E0
1.682295950E1,-1.519168019E-1,4.098663330E-1,1.652049303E0
1.684178549E1,-4.684221148E-1,4.061594009E-1,1.567479610E0
1.686061148E1,-8.023303747E-1,2.021903992E-1,1.478865147E0
1.687943747E1,-1.058970332E0,-3.269548416E-1,1.531924486E0
1.689826346E1,-1.289315104E0,-1.096410751E0,1.444133043E0
1.691708945E1,-1.747124434E0,-1.545686245E0,1.288232803E0
1.693591544E1,-2.240785122E0,-8.306541443E-1,9.791369438E-1
1.695474143E1,-2.477979183E0,4.814710617E-1,8.771562576E-1
1.697356742E1,-2.559273720E0,1.260991096E0,8.343901634E-1
1.699239346E1,-2.547327042E0,1.537827492E0,4.876966476E-1
1.701121945E1,-2.242612839E0,1.510962486E0,2.943685055E-1
1.703004544E1,-1.794611692E0,9.227056503E-1,1.059353352E-1
1.704887143E1,-1.288643479E0,4.309158325E-1,4.169726372E-2
1.706769742E1,-3.372972608E-1,8.078289032E-2,1.244602203E-1
1.708652341E1,4.910748303E-1,-3.607702255E-1,1.182217598E-1
1.710534940E1,7.760847807E-1,-9.115228653E-1,-7.402992249E-2
1.712417538E1,8.378280401E-1,-1.241944313E0,-5.008621216E-1
1.714300138E1,9.921379089E-1,-1.500915527E0,-8.856658936E-1
1.716182736E1,1.253680587E0,-1.445405960E0,-1.198617458E0
1.718065335E1,1.650730610E0,-1.019077301E0,-1.288241386E0
1.719947940E1,2.186336040E0,-3.034696579E-1,-1.345574856E0
1.721830538E1,2.741253376E0,2.868099213E-1,-1.293169737E0
1.723713138E1,3.233723640E0,5.574922562E-1,-1.285727262E0
1.725595736E1,3.621554375E0,6.933727264E-1,-1.176537752E0
1.727478335E1,3.774201870E0,7.517127991E-1,-1.082266092E0
1.729360934E1,3.806712151E0,6.253299713E-1,-1.103895664E0
1.731243533E1,3.973434448E0,2.035322189E-1,-1.109240055E0
1.733126138E1,4.079560757E0,-1.810398102E-1,-1.096640825E0
1.735008736E1,4.123812199E0,-2.645864487E-1,-8.575642109E-1
1.736891335E1,4.118983746E0,-2.457618713E-1,-6.543965340E-1
1.738773934E1,3.955823660E0,-1.558628082E-1,-4.553077221E-1
1.740656533E1,3.779915094E0,-4.312610626E-2,-1.310229301E-1
1.742539132E1,3.306971073E0,2.373504639E-1,2.784125805E-1
1.744421731E1,2.764242649E0,1.767625809E-1,2.033851147E-1
1.746304330E1,2.455290794E0,2.499732971E-1,1.087338924E-1
1.748186934E1,2.253430843E0,2.410316467E-1,1.968085766E-1
1.750069533E1,1.928636789E0,2.320842743E-1,1.164236069E-1
1.751952132E1,1.516098261E0,5.483493805E-1,-3.265674114E-1
1.753834731E1,1.132141590E0,7.846126556E-1,-6.491658688E-1
1.755717330E1,1.037609428E-1,7.943325043E-1,-9.996726513E-1
1.757599929E1,-1.051471353E0,6.338968277E-1,-7.630560398E-1
1.759482528E1,-1.983082891E0,9.327402115E-1,-2.142965794E-1
1.761363820E1,-3.567741156E0,1.909646988E0,1.061598301E0
1.763247731E1,-5.237632275E0,2.301500320E0,1.325984955E0
1.765130330E1,-6.630204678E0,1.228816032E0,8.290023804E-1
1.767012929E1,-7.168128014E0,5.294818878E-1,1.141746521E0
1.768895528E1,-6.713427544E0,6.587829590E-1,1.818851948E0
1.770778132E1,-6.330950737E0,4.811429977E-1,1.490352631E0
1.772660731E1,-5.399903774E0,6.348228455E-1,1.384390354E0
1.774543330E1,-4.670148849E0,1.245088577E0,2.055274963E0
1.776425929E1,-5.172686100E0,1.915539742E0,1.477387428E0
1.778308528E1,-6.075438499E0,2.445210457E0,1.132114887E0
1.780191132E1,-6.441541672E0,2.564391136E0,6.358966827E-1
1.782073731E1,-5.653575420E0,2.959109783E0,-6.201868057E-1
1.783955018E1,-2.893983126E0,4.260941982E0,6.426701546E-1
1.785838929E1,5.914461613E-1,5.133459568E0,2.911854744E0
1.787721528E1,2.389443159E0,5.001421928E0,3.235913754E0
1.789604132E1,2.105645657E0,4.523565292E0,2.065602303E0
1.791486731E1,8.088746071E-1,4.824361801E0,6.599144936E-1
1.793369330E1,-1.089496613E-1,4.758250237E0,3.027691841E-1
1.795251929E1,-6.435251236E-2,4.897770882E0,-5.100283623E-1
1.797134528E1,9.792168140E-1,4.400448799E0,-4.764065742E-1
1.799017132E1,1.502300024E0,4.434797287E0,-4.307026863E-1
1.800899731E1,1.657127619E0,4.322474957E0,-9.790148735E-1
1.802782330E1,1.701985121E0,4.057580471E0,-1.081121922E0
1.804664934E1,1.985611439E0,3.238957405E0,-1.419493198E0
1.806546221E1,2.287539959E0,2.305532455E0,-1.113686085E0
1.808430132E1,3.125202656E0,1.917699814E0,-7.801709175E-1
1.810312731E1,2.253728867E0,1.111905098E0,-1.525180340E0
1.812195335E1,1.603268385E0,8.768755794E-1,-2.673201084E0
1.814077934E1,1.026418686E0,1.876006961E0,-2.997403622E0
1.815960533E1,1.149381161E0,3.250263691E0,-3.635113716E0
1.817843132E1,2.198003769E0,4.437171936E0,-3.645452499E0
1.819725731E1,3.044800758E0,4.639209747E0,-3.218443394E0
1.821608335E1,2.797049999E0,2.993036509E0,-3.172604084E0
1.823489622E1,1.648820639E0,1.094263315E0,-3.136797905E0
1.825373533E1,1.279067874E0,1.991612911E-1,-2.581943035E0
1.827256138E1,1.433670402E0,-5.692429543E-1,-1.979765415E0
1.829138736E1,2.005337477E0,-6.195063591E-1,-1.416505337E0
1.831021335E1,2.478721619E0,-7.880110741E-1,-7.003750801E-1
1.832903934E1,1.842801809E0,-1.026927948E0,-4.282436371E-1
1.834786539E1,9.593869448E-1,-1.071507454E0,-1.121513844E0
1.836669138E1,5.097069740E-1,-4.467968941E-1,-2.005910397E0
1.838551736E1,7.698323727E-1,5.416202545E-2,-1.871518612E0
1.840434335E1,1.731788039E0,-2.055191994E-1,-1.273807526E0
1.842316940E1,2.197669029E0,-1.304018497E0,-6.035022736E-1
1.844199539E1,1.869590640E0,-2.263185501E0,-7.809700966E-1
1.846082138E1,1.402820110E0,-3.034645557E0,-9.923582077E-1
1.847964736E1,1.408948421E0,-3.316177845E0,-5.186285973E-1
1.849847341E1,1.207217932E0,-2.987514973E0,2.241230011E-2
1.851729940E1,8.196688890E-1,-2.392964840E0,2.084112167E-2
1.853612539E1,4.270038605E-1,-1.645273685E0,-7.190437317E-1
1.855495143E1,2.761626244E-2,-1.318223000E0,-1.357120037E0
1.857377742E1,-5.069541931E-2,-1.310913563E0,-1.878027916E0
1.859260341E1,4.152975082E-1,-2.334087849E0,-1.778586388E0
1.861142945E1,7.117246389E-1,-3.451176643E0,-1.340286732E0
1.863025544E1,6.589508057E-2,-3.860944271E0,-1.216866970E0
1.864908143E1,-5.788972378E-1,-3.351404667E0,-1.181090832E0
1.866790742E1,-1.085973263E0,-2.324833870E0,-1.173797131E0
1.868673346E1,-1.048722982E0,-1.353316784E0,-1.508460522E0
1.870555945E1,-1.074146271E0,1.760725975E-1,-2.136373043E0
1.872438544E1,-7.142298222E-1,1.688201904E0,-2.810570240E0
1.874321148E1,-3.487818241E-1,1.667829037E0,-2.727713108E0
1.876203747E1,-1.068779707E0,1.164155722E0,-3.002888203E0
1.878086346E1,-2.033688545E0,1.879916191E0,-3.495718002E0
1.879968950E1,-2.293509245E0,2.950042248E0,-3.362523556E0
1.881851549E1,-2.214004755E0,2.853659630E0,-2.093053341E0
1.883734148E1,-1.793466568E0,2.353248119E0,-6.295113564E-1
1.885616747E1,-1.251798868E0,1.929769278E0,6.825542450E-1
1.887499351E1,-5.998873711E-1,1.454415560E0,1.519655228E0
1.889381950E1,-3.740313053E-1,3.539805412E-1,1.956406116E0
1.891264549E1,-7.882647514E-1,-7.948722839E-1,1.570136070E0
1.893147153E1,-1.272418499E0,-1.019833088E0,6.204953194E-1
1.895029752E1,-1.641053200E0,-3.231582642E-1,-5.675220490E-2
1.896912351E1,-1.523425579E0,7.075591087E-1,-2.979292870E-1
1.898794955E1,-8.529343605E-1,1.120610237E0,-2.907323837E-1
1.900677554E1,-2.730174065E-1,1.091095209E0,-3.043456078E-1
1.902560153E1,-9.421110153E-2,6.346879005E-1,-2.651796341E-1
1.904442757E1,-3.844017982E-1,1.641721725E-1,-5.082821846E-1
1.906325356E1,-6.461696625E-1,-1.640841961E-1,-8.939342499E-1
1.908207955E1,-1.060052872E0,-2.153687477E-1,-8.828697205E-1
1.910090559E1,-1.709035873E0,7.395315170E-2,-4.855427742E-1
1.911973158E1,-1.770698547E0,3.350768089E-1,-4.652118683E-2
1.913855757E1,-1.345342636E0,1.735475063E-1,6.368541718E-1
1.915738361E1,-1.684269905E0,5.242354870E-1,1.107419968E0
1.917620960E1,-1.893814087E0,1.528736234E0,9.060263634E-1
1.919503565E1,-1.312777042E0,2.544417620E0,6.308836937E-1
1.921386164E1,-5.614194870E-1,3.292670012E0,2.058887482E-1
1.923268762E1,5.234560966E-1,2.763560295E0,8.610582352E-2
1.925151367E1,1.446006298E0,1.942085385E0,6.921138763E-1
1.927033966E1,1.977367163E0,1.853652477E0,1.055929184E0
1.928916565E1,2.662908554E0,2.180547714E0,9.214715958E-1
1.930799169E1,3.357748032E0,2.481014729E0,7.020931244E-1
1.932681768E1,4.010749817E0,2.695012569E0,4.887714386E-1
1.934564372E1,5.002749920E0,2.268808842E0,5.635662079E-1
1.936446971E1,5.295197964E0,2.049091816E0,7.556800842E-1
1.938329570E1,5.427494049E0,2.144595146E0,1.633296013E0
1.940212174E1,5.998275757E0,2.092658281E0,1.352481365E0
1.942094773E1,5.476682663E0,1.934489012E0,1.820775509E0
1.943977377E1,4.336716652E0,1.527564168E0,1.956968784E0
1.945859976E1,3.406567335E0,8.799349070E-1,4.928641319E-1
1.947742575E1,2.679993629E0,1.304347754E0,-7.904772758E-1
1.949625179E1,1.820562363E0,2.455728531E0,-7.755498886E-1
1.951507778E1,9.281592369E-1,2.362324715E0,-4.489755630E-1
1.953389070E1,-2.018470764E-1,1.342973590E0,-7.938899994E-1
1.955272981E1,-1.713263988E0,-3.728352785E-1,-2.382901907E0
1.957155580E1,-3.224877357E0,-1.812919974E0,-3.296632051E0
1.959038184E1,-3.716050148E0,-1.975140333E0,-3.068045855E0
1.960920783E1,-3.762892723E0,-2.161719799E0,-1.971439362E0
1.962803388E1,-3.835401535E0,-2.236224890E0,-1.288590431E0
1.964685986E1,-3.807654858E0,-2.403568983E0,-1.213140488E0
1.966568585E1,-3.719480038E0,-2.098886490E0,-5.881567001E-1
1.968451190E1,-4.001311779E0,-1.394534826E0,3.758502007E-1
1.970333788E1,-3.871082783E0,-1.431500912E0,4.265279770E-1
1.972216393E1,-2.922899246E0,-2.054503679E0,-6.713051796E-1
1.974098992E1,-2.284643650E0,-1.912116051E0,-5.647931099E-1
1.975981591E1,-2.149530411E0,-1.282393456E0,2.879390717E-1
1.977864195E1,-2.052271366E0,-9.048917294E-1,3.181757927E-1
1.979746794E1,-1.878270149E0,-2.699260712E-1,-3.946475983E-1
1.981629398E1,-1.890636921E0,7.168946266E-1,7.916975021E-2
1.983511997E1,-2.078553677E0,2.397618294E-1,1.514703751E0
1.985394601E1,-1.694369316E0,-4.139499664E-1,1.808973789E0
1.987277200E1,-1.694682598E0,-2.971744537E-1,1.048391342E0
1.989159799E1,-2.544142246E0,5.490365028E-1,7.140522003E-1
1.991042403E1,-3.058575630E0,8.684158325E-2,1.263291359E0
1.992925002E1,-2.561217785E0,-1.053166389E0,9.353885651E-1
1.994807606E1,-1.478455067E0,-1.472748280E0,-2.907514572E-2
1.996690205E1,-8.252811432E-1,-1.275678635E0,-8.376564980E-1
1.998572809E1,-4.803075790E-1,-9.223794937E-1,-1.497923851E0
2.000455408E1,-7.381820679E-2,2.918243408E-2,-1.752146244E0
2.002338013E1,6.917295456E-1,1.010235786E0,-1.923032045E0
2.004220611E1,1.277434349E0,1.530865192E0,-1.893046618E0
2.006103216E1,1.334604979E0,1.767925262E0,-1.579457045E0
2.007985815E1,1.297701120E0,1.628930569E0,-1.649915934E0
2.009868414E1,1.108319044E0,1.304869175E0,-1.853580236E0
2.011751018E1,5.243849754E-1,9.777512550E-1,-1.971720934E0
2.013633617E1,-2.989010811E-1,6.989808083E-1,-1.746670961E0
2.015516221E1,-7.147769928E-1,3.462386131E-1,-1.173965216E0
2.017398820E1,-6.053729057E-1,3.512454033E-1,-1.097707033E0
2.019281424E1,-3.232350349E-1,2.980260849E-1,-7.918190956E-1
2.021164023E1,1.100277901E-1,4.954833984E-1,-1.763551235E-1
2.023046627E1,5.942623615E-1,5.802593231E-1,3.192391396E-1
2.024929231E1,8.093621731E-1,1.958971024E-1,6.016023159E-1
2.026811830E1,8.413138390E-1,1.781339645E-1,9.213714600E-1
2.028694434E1,7.263517380E-1,3.262691498E-1,4.293322563E-1
2.030577033E1,4.032967091E-1,4.197301865E-1,2.129158974E-1
2.032459638E1,5.804064274E-1,4.209251404E-1,4.409728050E-1
2.034342236E1,6.870505810E-1,8.104457855E-1,1.132948875E0
2.036224841E1,1.771047115E-1,1.471050262E0,1.196171522E0
2.038107440E1,-6.945846081E-1,2.335650444E0,1.231926918E0
2.039990044E1,-1.042946339E0,1.931216240E0,1.257478952E0
2.041872643E1,-9.253599644E-1,-6.155967712E-3,1.361926079E0
2.043755247E1,-8.713612556E-1,-1.282729626E0,1.397583961E0
2.045637846E1,-9.901661873E-1,-8.483400345E-1,1.633630753E0
2.047520450E1,-1.220012903E0,-1.190643311E-1,1.459306717E0
2.049401742E1,-1.378233910E0,1.382031441E0,1.530947447E0
2.051285653E1,-1.330018520E0,2.303459167E0,1.391105652E0
2.053168252E1,-1.248962879E0,1.492948532E0,8.547801971E-1
2.055050856E1,-1.176014900E0,2.061328888E-1,2.179358006E-1
2.056933460E1,-1.436960220E0,-1.468601227E-1,-5.801887512E-1
2.058816059E1,-1.471049070E0,-1.321678162E-1,-8.591475487E-1
2.060698664E1,-1.207155228E0,1.457424164E-1,-1.220985413E0
2.062581263E1,-7.635947466E-1,7.385587692E-1,-1.254288554E0
2.064463867E1,-3.716914654E-1,7.671604156E-1,-1.500927567E0
2.066346471E1,-2.359992266E-1,1.692552567E-1,-1.615010500E0
2.068229070E1,-1.938796043E-2,-3.403997421E-1,-1.813839674E0
2.070111674E1,7.294321060E-2,-6.827974319E-1,-2.217856407E0
2.071994273E1,2.260791063E-1,-5.703029633E-1,-2.349905014E0
2.073876877E1,6.654136181E-1,-3.922462463E-1,-2.199437380E0
2.075759476E1,1.208415985E0,-1.644954681E-1,-1.811059237E0
2.077642080E1,1.780036569E0,-3.616333008E-1,-1.725833058E0
2.079524684E1,2.076575994E0,-7.248678207E-1,-1.750335217E0
2.081407283E1,1.958395243E0,-1.255490780E0,-1.795416117E0
2.083289888E1,1.444574118E0,-1.439198494E0,-1.787248731E0
2.085172486E1,7.722204924E-1,-1.092549801E0,-1.360697985E0
2.087055091E1,3.965046406E-1,-4.742355347E-1,-9.529330730E-1
2.088937695E1,2.050745487E-1,5.234432220E-1,-6.530292034E-1
2.090820294E1,1.657891273E-1,1.494678497E0,-3.255519867E-1
2.092702898E1,-4.156208038E-2,2.064830780E0,1.095559597E-1
2.094585497E1,-3.115341663E-1,2.154840469E0,6.860923767E-1
2.096468101E1,-4.718565941E-1,1.646236420E0,6.587965488E-1
2.098350700E1,-4.994409084E-1,2.491216660E-1,2.197263241E-1
2.100233304E1,-2.547099590E-1,-1.190875053E0,-1.339912415E-3
2.102115908E1,3.647856712E-1,-1.953936100E0,-9.692311287E-2
2.103998507E1,7.864019871E-1,-1.669832706E0,1.207036972E-1
2.105881111E1,9.800294638E-1,-8.012294769E-1,8.148026466E-2
2.107763716E1,1.012198448E0,2.825508118E-1,2.109334469E-1
2.109646315E1,9.859900475E-1,1.272116661E0,3.472881317E-1
2.111528919E1,4.747133255E-1,2.144515038E0,2.949101925E-1
2.113411523E1,-1.417071819E-1,2.092986107E0,1.964757442E-1
2.115294122E1,-8.222560883E-1,1.429015160E0,1.200249195E-1
2.117176726E1,-1.327520847E0,6.941423416E-1,5.723738670E-2
2.119059325E1,-1.274661064E0,-2.097406387E-1,2.491729259E-1
2.120941929E1,-6.155538559E-1,-7.167158127E-1,6.817460060E-1
2.122824533E1,2.707011700E-1,-6.246819496E-1,9.945573807E-1
2.124707132E1,8.212606907E-1,-5.900912285E-1,9.890830517E-1
2.126589736E1,7.745323181E-1,-5.209794044E-1,7.469522953E-1
2.128472341E1,5.297191143E-1,-2.143878937E-1,5.023310184E-1
2.130354940E1,3.300714493E-1,1.155633926E-1,2.998425961E-1
2.132237544E1,1.641755104E-1,1.006059647E-1,1.316437721E-1
2.134120143E1,1.033205986E-1,4.949378967E-2,8.176589012E-2
2.136002747E1,7.313394547E-2,-1.402654648E-1,2.320258617E-1
2.137885351E1,-4.099369049E-3,-3.274049759E-1,5.893216133E-1
2.139767950E1,3.612613678E-2,-3.217911720E-1,6.724183559E-1
2.141650554E1,1.179084778E-1,-1.772632599E-1,3.816680908E-1
2.143533158E1,2.685847282E-1,-1.094818115E-3,2.722408772E-1
2.145415757E1,5.774817467E-1,4.843902588E-1,6.916689873E-2
2.147298361E1,9.107620716E-1,8.891429901E-1,1.087937355E-1
2.149180966E1,1.103994846E0,1.432999611E0,5.689692497E-2
2.151063565E1,1.137419939E0,1.859341621E0,-9.328842163E-3
2.152946169E1,1.053831339E0,2.221609116E0,-5.108017921E-1
2.154828773E1,9.226455688E-1,2.102469444E0,-9.040982723E-1
2.156711372E1,9.854731560E-1,1.629256248E0,-9.341539145E-1
2.158593976E1,1.255357504E0,1.100723267E0,-7.634723186E-1
2.160476580E1,1.598136187E0,7.552890778E-1,-4.995257854E-1
2.162359179E1,1.781038523E0,6.510429382E-1,-5.519297123E-1
2.164241783E1,1.670329571E0,7.642583847E-1,-6.602132320E-1
2.166124388E1,1.261766672E0,9.557266235E-1,-7.507777214E-1
2.168006986E1,9.039735794E-1,9.919986725E-1,-9.973574877E-1
2.169889591E1,8.727834225E-1,8.530864716E-1,-1.297703981E0
2.171772195E1,1.231833220E0,5.824050903E-1,-1.836000800E0
2.173654794E1,1.652606964E0,5.104284286E-1,-2.201255798E0
2.175537398E1,1.912394285E0,7.943649292E-1,-2.347131729E0
2.177420002E1,2.102607727E0,1.061743736E0,-2.665660381E0
2.179302601E1,2.316380024E0,1.293622971E0,-2.762644529E0
2.181185205E1,2.616485596E0,1.318332672E0,-2.597851753E0
2.183067809E1,2.805585146E0,1.178036690E0,-2.453958988E0
2.184950408E1,2.663777828E0,1.272852898E0,-2.188987732E0
2.186833012E1,2.364065886E0,1.200322151E0,-1.984267950E0
2.188715617E1,2.036806822E0,1.082881927E0,-1.925341010E0
2.190598221E1,1.686213732E0,9.753475189E-1,-1.841305256E0
2.192480820E1,1.329976320E0,8.026895523E-1,-1.719565630E0
2.194363424E1,1.117785215E0,7.607116699E-1,-1.782790422E0
2.196246028E1,3.480713367E-1,9.197721481E-1,-2.222991943E0
2.198128627E1,-4.008159637E-1,3.777761459E-1,-2.981047630E0
2.200011231E1,-1.815032959E-1,1.615324020E-1,-2.728358507E0
2.201893835E1,8.398549557E-1,1.027548790E0,-1.671719313E0
2.203776440E1,2.667245865E0,1.404027939E0,-7.520484924E-1
2.205659038E1,4.191699505E0,2.550636292E0,-4.512906075E-2
2.207541643E1,4.116108418E0,2.921276093E0,2.264230251E-1
2.209424247E1,2.118968487E0,3.073133469E0,4.160034657E-2
2.211306846E1,5.753917694E-1,1.960770607E0,-2.745997906E-2
2.213189450E1,2.737011909E-1,1.220263481E0,3.720241785E-1
2.215072054E1,6.898975372E-1,4.637746811E-1,9.271481037E-1
2.216954658E1,1.714150071E0,-8.770942688E-2,1.330032825E0
2.218837257E1,2.411226749E0,-8.998680115E-2,1.474083185E0
2.220719861E1,1.691644430E0,3.281774521E-1,1.618811011E0
2.222602466E1,-1.919081211E-1,1.251782417E0,1.275917292E0
2.224485070E1,-1.762902260E0,8.776111603E-1,9.931828380E-1
2.226367669E1,-2.207072496E0,-7.057189941E-5,1.381258965E0
2.228250273E1,-2.099432707E0,-3.893909454E-1,1.265480161E0
2.230132877E1,-1.522406697E0,-5.234203339E-1,1.040334702E0
2.232015481E1,-7.146421671E-1,-3.908052444E-1,7.419162989E-1
2.233898080E1,-5.894668698E-1,-1.802463531E-1,1.799615622E-1
2.235780684E1,-1.171071768E0,1.058042526E0,1.138015985E-1
2.237663289E1,-1.521681786E0,1.899462700E0,-1.286339760E-2
2.239545893E1,-1.997485399E0,2.186799049E0,-5.472570658E-1
2.241428497E1,-2.112286329E0,1.752134323E0,-7.539347410E-1
2.243311096E1,-1.807875395E0,1.114143372E0,-5.602686405E-1
2.245193700E1,-1.912015557E0,9.262704849E-1,-4.176278114E-1
2.247076304E1,-2.264963150E0,7.003612518E-1,-6.617891788E-1
2.248958908E1,-2.350642204E0,3.823680878E-1,-6.929655075E-1
2.250841513E1,-2.335116148E0,-2.687168121E-2,-5.766158104E-1
2.252724117E1,-2.174404621E0,-5.680465698E-1,-4.704782963E-1
2.254606716E1,-1.779770494E0,-9.345884323E-1,-7.743105888E-1
2.256489320E1,-1.249962091E0,6.223869324E-2,-1.193906546E0
2.258371924E1,-1.095340848E0,1.378358841E0,-2.090089560E0
2.260254528E1,-2.202950954E0,6.954641342E-1,-1.783660650E0
2.262137132E1,-1.880522490E0,-8.971281052E-1,-2.172010422E0
2.264018424E1,-7.693126202E-1,-2.631906033E0,-1.589570284E0
2.265902335E1,-3.466056585E-1,-3.454467297E0,-2.138624430E0
2.267784940E1,-2.708405256E-1,-2.736544609E0,-2.966748476E0
2.269667544E1,1.343671083E-1,-1.226599693E0,-2.937832117E0
2.271550148E1,-2.811491489E-2,3.219919205E-1,-2.695708990E0
2.273432752E1,-1.106362700E0,1.319561005E0,-3.155574799E0
2.275315356E1,-2.365165472E0,2.125004768E0,-2.230349541E0
2.277197960E1,-2.894837856E0,1.767267227E0,-3.270564079E-1
2.279080565E1,-3.738226652E0,1.085672379E0,1.226014614E0
2.280963164E1,-4.733903885E0,1.219568253E0,1.486039639E0
2.282845768E1,-5.176950455E0,2.362395287E0,2.487986088E0
2.284728372E1,-4.675812244E0,3.249555111E0,3.265972614E0
2.286610976E1,-4.200929642E0,3.111017704E0,2.833689690E0
2.288493580E1,-3.692531586E0,2.081981659E0,1.604279518E0
2.290376184E1,-2.823050499E0,2.273459435E-1,5.480418205E-1
2.292258789E1,-1.726442337E0,-8.052692413E-1,6.626467705E-1
2.294141388E1,-7.215042114E-1,-1.285625458E0,1.192501545E0
2.296023992E1,-5.958490372E-1,-1.551200390E0,6.312179565E-1
2.297905283E1,-1.762930393E0,-5.273222923E-1,3.651566505E-1
2.299789200E1,-3.130731583E0,1.644624710E0,-9.396002293E-1
2.301671804E1,-3.296053886E0,1.647130966E0,-1.082988024E0
2.303554408E1,-2.514801979E0,1.167589188E0,-3.567957878E-1
2.305437007E1,-2.025256157E0,5.235433578E-1,-1.662069559E0
2.307319611E1,-2.561610222E0,7.533600330E-1,-1.512487888E0
2.309202216E1,-2.482162952E0,1.383931637E0,-1.892783642E0
2.311084820E1,-1.840740681E0,1.949227333E0,-2.197728157E0
2.312967424E1,-1.584053040E0,2.064181566E0,-1.911927462E0
2.314850028E1,-1.193719864E0,1.912964821E0,-2.376256704E0
2.316732632E1,-1.575028419E0,2.397956371E0,-2.246198416E0
2.318615236E1,-2.161921501E0,2.927428007E0,-2.030082464E0
2.320497835E1,-2.191956520E0,3.079967737E0,-2.249998093E0
2.322380440E1,-2.024189949E0,3.427485943E0,-1.387272596E0
2.324263044E1,-1.154728889E0,3.819448233E0,-1.196837664E0
2.326145648E1,-5.224170685E-1,4.094700336E0,-1.487347126E0
2.328028252E1,-2.705430984E-1,4.362595558E0,-1.907569647E0
2.329910856E1,4.961013794E-3,5.063378334E0,-2.239672184E0
2.331793460E1,1.535491943E-1,6.431530476E0,-2.514429569E0
2.333676065E1,7.146229744E-1,7.301514626E0,-2.521920204E0
2.335558669E1,1.568094730E0,7.664628983E0,-1.965640068E0
2.337441268E1,1.872505665E0,7.965644836E0,-6.634027958E-1
2.339323872E1,1.814494610E0,7.758833885E0,2.352838516E-1
2.341206476E1,1.730260849E0,6.748285294E0,8.430652618E-1
2.343087768E1,1.291216850E0,5.324657917E0,1.146512508E0
2.344971684E1,7.550177574E-1,4.015256405E0,1.157833338E0
2.346854288E1,1.344351768E-1,3.110948563E0,1.213689804E0
2.348736893E1,-6.912236214E-1,2.891290426E0,1.474821091E0
2.350619497E1,-1.632647514E0,3.233750820E0,1.516601562E0
2.352502096E1,-1.336353779E0,2.982737541E0,1.100999832E0
2.354383393E1,4.850902557E-1,2.520452261E0,1.266267300E0
2.356267304E1,3.171808004E0,2.377939224E0,1.207572460E0
2.358149908E1,5.126884460E0,2.321055412E0,2.925026417E0
2.360031200E1,5.927807331E0,3.113936186E0,4.695127487E0
2.361915117E1,5.544205666E0,3.115966320E0,5.105849266E0
2.363797721E1,4.666939735E0,1.578039408E0,4.320753098E0
2.365679012E1,3.573311329E0,1.368743896E0,2.556011200E0
2.367562929E1,2.517266512E0,1.928138494E0,9.530615807E-1
2.369445533E1,2.018682718E0,2.390849829E0,5.792140961E-1
2.371328132E1,2.316118002E0,2.182962894E0,7.270579338E-1
2.373210736E1,3.332280636E0,1.776563406E0,6.894264221E-1
2.375093341E1,4.450522423E0,1.498843670E0,1.499934196E0
2.376975945E1,5.143113613E0,1.233700275E0,3.562743187E0
2.378858549E1,5.780324459E0,9.209294319E-1,3.438904285E0
2.380741153E1,6.281711578E0,2.401576996E0,2.916332245E0
2.382622445E1,5.823359489E0,5.573994637E0,1.174743176E0
2.384506361E1,3.065883398E0,6.188867569E0,-1.037637234E0
2.386388966E1,-7.423877716E-2,4.772017479E0,-2.130300045E0
2.388271570E1,-8.988828659E-1,3.973882675E0,-1.885346413E0
2.390154174E1,6.581177711E-1,2.850830555E0,-7.874121666E-1
2.392036778E1,1.351671696E0,3.240600109E0,4.699397087E-1
2.393918070E1,3.171968460E-2,4.084334373E0,1.321219921E0
2.395801986E1,-1.490266323E0,3.688772917E0,1.494209766E0
2.397684591E1,-2.536975384E0,2.991510391E0,1.526133537E0
2.399567195E1,-2.861460686E0,2.076659918E0,1.524922371E0
2.401449799E1,-3.281933308E0,1.761599779E0,2.032783985E0
2.403332403E1,-3.354479313E0,1.518863678E0,1.196381569E0
2.405215007E1,-3.440875530E0,1.906072617E0,1.049361229E-1
2.407097606E1,-3.441831112E0,1.267796278E0,-6.236062050E-1
2.408980216E1,-3.221872330E0,9.027361274E-1,-8.837037086E-1
2.410862820E1,-2.726755142E0,6.334614158E-1,-1.322904110E0
2.412745419E1,-2.425087929E0,5.410616398E-1,-1.546219349E0
2.414628028E1,-2.349553108E0,4.495083094E-1,-1.598355293E0
2.416510632E1,-2.440683842E0,5.737960339E-2,-2.147317410E0
2.418393231E1,-2.498190403E0,-4.157875180E-1,-2.837644100E0
2.420275835E1,-2.991248608E0,-6.662937403E-1,-2.675799847E0
2.422158440E1,-3.349534512E0,-1.545451164E0,-2.876262665E0
2.424041044E1,-3.654579163E0,-1.693883777E0,-3.029001713E0
2.425923648E1,-3.875335217E0,-1.887347937E0,-3.088602304E0
2.427806252E1,-3.757383823E0,-2.062373638E0,-3.281367064E0
2.429688856E1,-3.568717957E0,-2.285638571E0,-3.362679958E0
2.431571460E1,-3.376741409E0,-2.761608124E0,-2.730289459E0
2.433454065E1,-2.886085033E0,-2.329297066E0,-2.251524925E0
2.435336669E1,-2.545198917E0,-1.477219105E0,-2.141515255E0
2.437219273E1,-2.898492336E0,-1.313755631E0,-2.090268135E0
2.439101877E1,-3.117872238E0,-1.489197135E0,-2.165279388E0
2.440984481E1,-2.543849468E0,-2.131292820E0,-2.435973644E0
2.442867085E1,-1.905012131E0,-1.956784487E0,-1.167541504E0
2.444749690E1,-1.128019810E0,-1.514517307E0,-5.859708786E-1
2.446632294E1,-7.963714600E-1,-1.595977783E0,-3.340339661E-1
2.448514898E1,-1.044602394E0,-1.418197870E0,-5.464010239E-1
2.450397502E1,-1.039824486E0,-1.059862614E0,-2.949910164E-1
2.452280106E1,-1.018113613E0,-8.643410206E-1,9.220266342E-2
2.454162710E1,-1.268470764E0,-7.894238234E-1,3.929734230E-1
2.456045315E1,-1.871855259E0,-8.406085968E-1,4.635577202E-1
2.457927919E1,-3.095028400E0,-1.257479548E0,1.841874123E-1
2.459810523E1,-4.092145443E0,-1.935623884E0,-3.650298119E-1
2.461693127E1,-4.659256935E0,-2.450342655E0,-2.935609818E-1
2.463575731E1,-4.687015533E0,-1.810152292E0,-7.133989334E-1
2.465458335E1,-4.221501350E0,-6.875425577E-1,-2.183963299E0
2.467340940E1,-3.622902393E0,4.547748566E-1,-3.016351223E0
2.469223544E1,-3.067614079E0,1.661871910E0,-2.638031006E0
2.471106148E1,-2.465655804E0,2.478276014E0,-2.416647434E0
2.472988752E1,-1.901896000E0,2.230422258E0,-1.595075607E0
2.474871356E1,-1.598671913E0,1.335776806E0,-8.617072105E-1
2.476753966E1,-1.495563984E0,5.408945084E-1,-1.286699772E0
2.478636565E1,-1.498233795E0,8.039808273E-2,-2.249235153E0
2.480519174E1,-1.619210720E0,3.518633842E-1,-2.498501778E0
2.482401778E1,-1.534624100E0,9.937700033E-1,-2.685406208E0
2.484284382E1,-9.884948730E-1,1.559184551E0,-2.874579906E0
2.486166986E1,4.160594940E-2,2.167981148E0,-2.825763702E0
2.488049591E1,1.205756187E0,2.374350548E0,-2.043277740E0
2.489932195E1,2.392367363E0,2.737782478E0,-9.355025291E-1
2.491814799E1,3.317951202E0,3.359946489E0,-5.150771141E-1
2.493697403E1,3.279634476E0,3.402566433E0,-1.102981567E-1
2.495580007E1,2.404349327E0,2.808339596E0,3.087968826E-1
2.497462611E1,1.203204632E0,1.601352692E0,-6.716966629E-2
2.499345216E1,1.409778595E-1,5.436341763E-1,-3.327383995E-1
2.501227820E1,-1.125965118E0,5.456955433E-1,2.894430161E-1
2.503110424E1,-2.387837887E0,6.984077692E-1,8.194713593E-1
2.504993028E1,-2.733938217E0,-2.892872095E-1,-2.479195595E-1
2.506875632E1,-2.286791801E0,-2.072860718E0,-9.274015427E-1
2.508758236E1,-1.769886017E0,-2.802821159E0,-4.569158554E-1
2.510640841E1,-1.103455067E0,-1.989349484E0,-3.987779617E-1
2.512522138E1,-8.647313118E-1,3.035670519E-1,-1.178980350E0
2.514406049E1,-1.387096405E0,1.656108379E0,-1.958526134E0
2.516288658E1,-2.216036320E0,5.870708227E-1,-1.849463940E0
2.518171263E1,-3.142789841E0,-3.498816490E-2,-1.932677746E0
2.520053867E1,-4.180502892E0,9.759570360E-1,-1.930272102E0
2.521936471E1,-5.154228210E0,1.148631692E0,-2.216003418E0
2.523819075E1,-6.153068066E0,6.547924280E-1,-2.952793598E0
2.525701679E1,-5.798540115E0,6.631084681E-1,-3.602627277E0
2.527584283E1,-3.117503166E0,1.558094501E0,-2.757422447E0
2.529466888E1,-1.193418503E0,2.383103371E0,-1.138370991E0
2.531349492E1,-2.228590012E0,1.894939184E0,-1.659868717E0
2.533232096E1,-4.088372707E0,1.590684175E0,-3.210990429E0
2.535113393E1,-4.967280388E0,2.283345222E0,-5.320038795E0
2.536997304E1,-4.884165764E0,3.518744707E0,-7.217666149E0
2.538879914E1,-4.136277676E0,5.533681870E0,-7.524592400E0
2.540761205E1,-2.685999870E0,5.839295864E0,-6.489959240E0
2.542645122E1,-1.052202702E0,4.920501709E0,-5.455788612E0
2.544527726E1,-2.412514687E-1,4.087810040E0,-3.975716114E0
2.546410330E1,-2.055563927E-1,3.821552753E0,-3.758471012E0
2.548292934E1,-1.566353321E0,4.142874718E0,-3.511303425E0
2.550175539E1,-3.036877155E0,4.490987301E0,-3.554897785E0
2.552058143E1,-3.433488846E0,3.975297689E0,-3.372754574E0
2.553940752E1,-2.980137825E0,3.445686340E0,-2.568241119E0
2.555823356E1,-1.952551365E0,3.790484190E0,-1.594733238E0
2.557705960E1,-1.308997154E0,4.362048149E0,-8.390493393E-1
2.559588565E1,-1.905722618E0,4.388058662E0,-8.162622452E-1
2.561471169E1,-3.122065544E0,3.784469843E0,-3.571290970E-1
2.563353773E1,-3.955341816E0,2.762213469E0,-3.441033363E-1
2.565236377E1,-5.059962749E0,2.566816092E0,-1.645858288E0
2.567118981E1,-6.389243603E0,3.974965096E0,-3.533494949E0
2.569001591E1,-6.383187771E0,5.433176994E0,-4.278007507E0
2.570884195E1,-4.086717606E0,5.434557915E0,-4.399003983E0
2.572766799E1,-1.073616028E0,5.945515633E0,-3.586173058E0
2.574648091E1,1.435364485E0,6.343489647E0,-2.442223072E0
2.576532007E1,2.742461681E0,5.327921391E0,-1.911713123E0
2.578414611E1,3.389321327E0,4.286006927E0,-2.131217957E0
2.580297216E1,3.170634270E0,4.306875229E0,-1.549513817E0
2.582179825E1,2.377442122E0,4.198090553E0,-7.153367996E-1
2.584062429E1,1.216759205E0,3.250712633E0,2.352004051E-1
2.585943721E1,-5.864286423E-2,2.430766106E0,4.376702309E-1
2.587827638E1,-8.059749603E-1,2.097725391E0,8.919639587E-1
2.589710242E1,-1.329669952E0,1.872996807E0,1.172370434E0
2.591592851E1,-1.427179337E0,1.954868793E0,1.110834599E0
2.593475455E1,-9.409570694E-1,1.787373304E0,9.997830391E-1
2.595358059E1,-5.372118950E-1,1.607885122E0,5.763711929E-1
2.597240664E1,-4.495754242E-1,1.622252941E0,-4.124979973E-1
2.599123268E1,-1.719212532E-1,1.743624449E0,-1.102571011E0
2.601005877E1,6.140699387E-1,2.007177830E0,-1.267875671E0
2.602888481E1,1.299512386E0,1.964521885E0,-1.530075550E0
2.604771085E1,1.577436447E0,1.644969940E0,-1.345744133E0
2.606653690E1,1.359098434E0,1.312391281E0,-1.335694790E0
2.608536294E1,1.381945133E0,5.671019554E-1,-1.232517719E0
2.610418898E1,1.558236599E0,5.577833652E-1,-1.062186718E0
2.612301507E1,1.417380810E0,5.014758110E-1,-7.762575150E-1
2.614184111E1,7.703695297E-1,-1.622054577E-1,-3.243374825E-1
2.616066716E1,-3.221364021E-1,-3.276777267E-1,-3.847703934E-1
2.617949320E1,-1.369356155E0,3.216452599E-1,-7.269287109E-1
2.619831929E1,-1.917853355E0,1.171609640E0,-4.912328720E-1
2.621714533E1,-2.080014229E0,1.670081139E0,-5.169177055E-1
2.623597138E1,-2.267271519E0,2.043334246E0,-2.062869072E-1
2.625479742E1,-1.730753899E0,2.040375233E0,-6.263394356E-1
2.627362346E1,-1.336583614E0,2.253108740E0,-6.280851364E-1
2.629244955E1,-8.043017387E-1,2.306376696E0,-7.841906548E-1
2.631127559E1,6.313037872E-2,2.133470297E0,-1.282876492E0
2.633010164E1,5.763707161E-1,2.097241163E0,-1.748344898E0
2.634892768E1,1.029778481E0,1.715395689E0,-2.311297178E0
2.636775377E1,1.544057369E0,1.756147385E0,-2.426255941E0
2.638657981E1,1.997767925E0,1.942727566E0,-2.483025074E0
2.640540585E1,2.807668209E0,2.052123547E0,-2.384435415E0
2.642423190E1,4.014462471E0,2.429322004E0,-2.183370113E0
2.644305799E1,5.403596401E0,2.471038818E0,-1.806784153E0
2.646188403E1,6.007159710E0,2.605658770E0,-1.158991337E0
2.648071007E1,5.662302971E0,2.971200466E0,-5.864715576E-1
2.649953611E1,5.151496887E0,3.598240137E0,-2.891812325E-1
2.651836221E1,5.046238422E0,4.382603168E0,1.117262840E-1
2.653717512E1,4.827387810E0,5.349698067E0,6.952347755E-1
2.655601429E1,3.625183344E0,6.328739166E0,1.034554482E0
2.657484033E1,1.696186543E0,6.581358433E0,1.233621597E0
2.659366643E1,8.866901398E-1,6.074775219E0,1.197026253E0
2.661249247E1,-5.703449249E-2,6.358497620E0,4.087414742E-1
2.663131851E1,-3.443059921E-1,6.370884895E0,-9.002385139E-1
2.665014455E1,-4.796290398E-1,6.516221523E0,-1.260341644E0
2.666897065E1,-3.312973976E-1,6.117845058E0,-1.351325512E0
2.668779669E1,-7.368521690E-1,7.104041576E0,-1.913618565E0
2.670662273E1,-1.477394104E0,7.126769543E0,-2.345855713E0
2.672544882E1,-2.975946903E0,6.637735844E0,-3.581105709E0
2.674427486E1,-4.142606735E0,5.733469963E0,-4.481620789E0
2.676308783E1,-4.480219841E0,4.312090397E0,-4.043408394E0
2.678192700E1,-3.732355595E0,3.347229004E0,-3.090528965E0
2.680075304E1,-3.275269508E0,3.553476810E0,-1.447716713E0
2.681957908E1,-2.551235676E0,2.664377689E0,-5.757908821E-1
2.683840518E1,-1.938729763E0,1.313701153E0,-5.381021500E-1
2.685723122E1,-1.101517916E0,1.043044090E0,-3.699626923E-1
2.687605731E1,-7.775824070E-1,1.420414448E0,1.020760536E-1
2.689488335E1,-1.279613256E0,2.621725559E0,4.752855301E-1
2.691370940E1,-2.756519318E0,3.251286507E0,-1.467432976E-1
2.693252236E1,-4.752150059E0,1.413322449E0,-1.369972229E0
2.695136153E1,-5.654520035E0,-1.458151102E0,-1.993047714E0
2.697018762E1,-5.144104958E0,-1.681614876E0,-1.759810925E0
2.698901367E1,-4.943431854E0,-9.817357063E-1,-2.610291004E0
2.700783971E1,-5.197457314E0,-8.603522778E-1,-3.918517351E0
2.702666580E1,-4.985124588E0,-1.589100361E0,-4.710054398E0
2.704549184E1,-4.387310505E0,-1.883956432E0,-4.840147018E0
2.706431794E1,-4.046623230E0,-2.205432892E0,-4.939380169E0
2.708314398E1,-3.513519287E0,-2.503364563E0,-4.453220367E0
2.710195695E1,-2.654043198E0,-2.832963467E0,-3.464776039E0
2.712079611E1,-7.036938667E-1,-2.677488327E0,-1.981727600E0
2.713962216E1,8.885040283E-1,-1.475800276E0,-3.025116920E-1
2.715843512E1,2.018878698E0,-1.813139915E-1,1.121056557E0
2.717727429E1,2.874581099E0,9.005932808E-1,1.942945480E0
2.719610033E1,3.299987078E0,1.392659187E0,1.929448605E0
2.721492643E1,3.223847628E0,1.692196369E0,1.219819069E0
2.723375247E1,3.100649357E0,1.620110989E0,4.887042046E-1
2.725257856E1,2.472534418E0,8.207015991E-1,-6.019053459E-1
2.727140460E1,1.047206640E0,-4.018721581E-1,-1.562753677E0
2.729023070E1,-2.682240009E-1,-1.265196323E0,-2.101747990E0
2.730905674E1,-9.239070415E-1,-1.313886166E0,-2.319046021E0
2.732788278E1,-1.458816051E0,-7.646927834E-1,-2.275127888E0
2.734670888E1,-2.161315918E0,-9.678297043E-1,-2.176418781E0
2.736553492E1,-2.753947973E0,-2.971544266E-1,-1.622056961E0
2.738436101E1,-3.606455803E0,2.740731239E-1,-1.081299305E0
2.740318705E1,-4.136636734E0,4.441871643E-1,-5.260682106E-1
2.742201315E1,-4.241413593E0,-1.967506409E-1,3.115029335E-1
2.744083919E1,-4.043284416E0,-1.505235195E0,9.869208336E-1
2.745966523E1,-3.819659710E0,-2.993765831E0,1.597952843E0
2.747849132E1,-3.808482170E0,-3.155584812E0,2.112468243E0
2.749731736E1,-4.288121223E0,-1.760331154E0,2.147243977E0
2.751614346E1,-4.844748497E0,-6.220846176E-1,1.594014168E0
2.753496950E1,-4.866321564E0,-3.492069244E-1,1.294109821E0
2.755379554E1,-4.743763924E0,-5.620560646E-1,1.056135178E0
2.757262164E1,-4.525545120E0,-5.085301399E-1,2.309594154E-1
2.759144768E1,-4.276599407E0,7.152194977E-1,-5.570435524E-1
2.761027377E1,-3.553361416E0,1.429794312E0,-3.286242485E-1
2.762909981E1,-2.316153526E0,1.403581142E0,-6.384325027E-2
2.764792585E1,-1.185437202E0,1.983152866E0,2.635760307E-1
2.766675195E1,-6.386194229E-1,2.572464466E0,5.940318108E-1
2.768557799E1,1.462182999E-1,2.623980999E0,9.486904144E-1
2.770440403E1,9.090123177E-1,2.804387093E0,1.872634888E-1
2.772323012E1,1.114706039E0,2.828376293E0,-7.217798233E-1
2.774205617E1,1.642555237E0,2.634250164E0,-1.217802048E0
2.776088221E1,3.055549860E0,2.991706848E0,-1.777719975E0
2.777969518E1,4.475769997E0,2.942183495E0,-2.324594975E0
2.779853434E1,5.617473602E0,2.573591232E0,-2.012460232E0
2.781736044E1,6.643404961E0,2.659307957E0,-1.365330696E0
2.783618648E1,7.067510605E0,2.852908611E0,-6.843934059E-1
2.785501252E1,7.072649956E0,2.765306950E0,-4.372482300E-1
2.787383861E1,6.317555428E0,2.618982792E0,-5.637087822E-1
2.789266466E1,5.138469696E0,1.987682819E0,-6.430864334E-1
2.791149075E1,3.637289286E0,1.403067589E0,-7.052812576E-1
2.793031679E1,2.520179033E0,1.152582169E0,-1.069941998E0
2.794912976E1,1.076865196E0,1.219686508E0,-1.916390419E0
2.796796893E1,4.082946777E-1,3.472166061E-1,-2.680353880E0
2.798679497E1,1.655497551E-1,3.139901161E-1,-1.786752701E0
2.800562106E1,2.856302261E-1,7.192459106E-1,-6.027655602E-1
2.802444710E1,3.547668457E-1,9.917564392E-1,-1.169557571E-1
2.804327315E1,-2.214999199E-1,8.799962997E-1,-3.690161705E-1
2.806209924E1,-8.762507439E-1,7.426242828E-1,-2.595562935E-1
2.808092528E1,-9.666953087E-1,9.792046547E-1,7.293701172E-2
2.809975132E1,-1.608969688E0,9.379119873E-1,1.081838608E-1
2.811857742E1,-2.539918423E0,1.114336967E0,-1.961231232E-3
2.813740346E1,-2.735600471E0,1.169101238E0,-5.771660805E-1
2.815622955E1,-2.670927525E0,7.001714706E-1,-4.463996887E-1
2.817505559E1,-1.689422607E0,5.352244377E-1,6.912674904E-1
2.819388169E1,-8.324623108E-3,1.025066853E0,1.367699146E0
2.821270773E1,7.772212029E-1,1.178544044E0,1.293726444E0
2.823153382E1,3.991589546E-1,5.785145760E-1,3.027276993E-1
2.825035986E1,-7.391390800E-1,-1.524081230E-1,-1.249463558E0
2.826918591E1,-1.888841629E0,-4.358711243E-1,-1.292517662E0
2.828801200E1,-1.665162086E0,4.252004623E-1,2.080430984E-1
2.830683804E1,-1.878132820E-1,9.929757118E-1,2.889790535E-1
2.832566414E1,-2.862682343E-1,4.524407387E-1,-9.755620956E-1
2.834449018E1,-1.627574444E0,-1.926360130E-1,-2.078715801E0
2.836331627E1,-1.332328320E0,-7.244210243E-1,-3.606626272E0
2.838214231E1,9.160685539E-1,-3.052401543E-1,-2.810227156E0
2.840095528E1,4.410890102E0,-2.156496048E-2,-1.576816082E0
2.841979445E1,8.050273895E0,-1.072115898E-1,-1.921505928E-1
2.843862049E1,9.528313637E0,5.983996391E-1,1.310533047E0
2.845744658E1,7.974348545E0,1.561274529E0,2.166403770E0
2.847627262E1,5.650850773E0,2.193966389E0,9.909133911E-1
2.849509872E1,3.757916451E0,2.378002644E0,-6.840858459E-1
2.851392476E1,2.486302614E0,2.394587517E0,-4.324493408E-1
2.853275085E1,1.830095291E0,3.102192879E0,2.773823738E-1
2.855157690E1,6.333866119E-1,4.299534321E0,-2.129602432E-1
2.857038986E1,-1.525952816E0,4.336201668E0,-6.955080032E-1
2.858922903E1,-2.876960039E0,4.157614708E0,-1.205720425E0
2.860805513E1,-3.453304052E0,4.113581657E0,-2.224417686E0
2.862688117E1,-4.357300282E0,4.306087017E0,-2.808870554E0
2.864570726E1,-5.653085709E0,3.532194614E0,-3.191442490E0
2.866453335E1,-7.704764843E0,1.948832512E0,-4.481381893E0
2.868334627E1,-8.653263092E0,3.764667511E-1,-6.116380692E0
2.870218549E1,-7.923242569E0,3.045916557E-1,-6.784850121E0
2.872101153E1,-5.320106983E0,7.512044907E-2,-3.988874435E0
2.873982450E1,-3.421474457E0,5.490565300E-1,-8.240337372E-1
2.875866367E1,-4.332429409E0,1.165405273E0,9.196743965E-1
2.877748976E1,-7.408057213E0,6.026086807E-1,2.781672478E-1
2.879630268E1,-9.881261826E0,-4.298205376E-1,-8.107523918E-1
2.881514190E1,-1.017753124E1,-1.204379082E0,-2.094905615E0
2.883396794E1,-9.321876526E0,-1.253397942E0,-3.308171988E0
2.885278091E1,-6.731158733E0,-4.437818527E-1,-2.955646515E0
2.887162007E1,-4.185842514E0,1.310453415E0,-5.659704208E-1
2.889044617E1,-2.549390793E0,2.426875114E0,1.306651592E0
2.890927226E1,-1.947299242E0,2.078789711E0,2.084582806E0
2.892809830E1,-2.254482985E0,1.828046799E0,6.296532154E-1
2.894692440E1,-1.907252669E0,1.334040642E0,-1.017975807E-1
2.896575044E1,-3.900305033E-1,1.454869270E0,-1.991460323E-1
2.898457653E1,8.245923519E-1,3.124701500E0,5.014986992E-1
2.900340257E1,1.375484705E0,3.706161499E0,1.183749199E0
2.902222867E1,1.354772687E0,2.796301842E0,3.018329144E-1
2.904105471E1,1.713661313E0,9.767951965E-1,-7.242689133E-1
2.905988080E1,2.418684483E0,-8.310270309E-1,-4.862930775E-1
2.907870684E1,2.374031544E0,-1.272440910E0,1.282813430E0
2.909753294E1,1.118267655E0,-1.454358101E0,1.525488019E0
2.911635903E1,-1.653088331E-1,-1.303675652E0,9.339196682E-1
2.913518507E1,-3.737741709E-1,-5.550355911E-1,6.462157965E-1
2.915401117E1,2.698787451E-1,3.997793198E-1,7.702153921E-1
2.917283721E1,5.274370909E-1,1.343441963E0,4.985643625E-1
2.919166330E1,4.208240509E-1,1.661781311E0,-1.997789145E-1
2.921048940E1,4.173302352E-1,1.486609459E0,-6.718444824E-1
2.922931544E1,5.679960251E-1,6.117906570E-1,-8.630131483E-1
2.924814153E1,9.909307957E-1,-2.030248642E-1,-7.800013423E-1
2.926696757E1,1.784595251E0,-8.583660126E-1,-6.353807449E-1
2.928579367E1,2.220244169E0,-6.364135742E-1,7.299041748E-2
2.930461971E1,2.547207355E0,-3.583021164E-1,4.830025434E-1
2.932344580E1,2.896363735E0,-1.583709717E-1,7.195303440E-1
2.934227190E1,2.872706652E0,9.006500244E-2,1.102746129E0
2.936109794E1,2.391478777E0,6.484022141E-1,1.150191784E0
2.937992403E1,2.115287781E0,1.549077034E0,5.576138496E-1
2.939875007E1,1.974340916E0,1.792972565E0,-8.994603157E-2
2.941757617E1,1.719374061E0,1.402829170E0,-3.821926117E-1
2.943640221E1,1.365499377E0,7.264108658E-1,-7.150614262E-1
2.945522830E1,1.100049257E0,5.860042572E-2,-1.021760225E0
2.947405440E1,1.035449266E0,-4.739580154E-1,-1.533286810E0
2.949288044E1,1.076324224E0,-2.860641479E-1,-1.819549799E0
2.951170653E1,6.540224552E-1,1.080135345E0,-1.894855857E0
2.953053257E1,-3.606915474E-2,2.758626938E0,-1.557875276E0
2.954935867E1,-3.841376305E-1,3.105810165E0,-1.052748322E0
2.956818476E1,-6.858415604E-1,1.932683945E0,-3.083188534E-1
2.958699773E1,-1.229088545E0,3.829202652E-1,-1.193451881E-2
2.960583690E1,-1.562613010E0,-1.762752056E0,1.292631626E-1
2.962466294E1,-1.653601408E0,-3.045660019E0,4.957768917E-1
2.964348903E1,-1.255406141E0,-2.836020947E0,8.233294487E-1
2.966231513E1,-7.265493870E-1,-1.859344006E0,1.587984324E0
2.968114117E1,-5.341615677E-1,-7.474632263E-1,1.846862555E0
2.969996726E1,-7.899460793E-1,-4.249668121E-2,1.989360809E0
2.971879330E1,-1.315119863E0,-3.678636551E-1,1.548395157E0
2.973761940E1,-2.066518068E0,-7.739019394E-1,1.097976446E0
2.975644549E1,-2.939752579E0,-6.096010208E-1,1.035301208E0
2.977527153E1,-3.431589127E0,-3.750648499E-1,7.400774956E-1
2.979409763E1,-3.671290874E0,-2.347373962E-1,7.248845100E-1
2.981292372E1,-3.500871897E0,-7.282094955E-1,7.808227539E-1
2.983174976E1,-2.752682686E0,-1.431293011E0,3.203721046E-1
2.985057585E1,-1.729527712E0,-1.909460545E0,1.634430885E-2
2.986940195E1,-1.074144959E0,-1.285552025E0,-6.789541245E-2
2.988822799E1,-8.028795123E-1,1.516923904E-1,-4.989116192E-1
2.990705408E1,-6.932954788E-1,1.374527931E0,-1.215677500E0
2.992588018E1,-7.090377808E-1,1.669979095E0,-1.979158401E0
2.994470622E1,-7.262121439E-1,1.702456474E0,-2.393536091E0
2.996353231E1,-5.093896389E-1,1.577869415E0,-2.496321201E0
2.998235841E1,-3.401037455E-1,9.129638672E-1,-2.249447823E0
3.000118445E1,-7.145607471E-1,1.044178009E-1,-1.935459852E0
3.002001054E1,-1.072652340E0,-5.602445602E-1,-1.147520065E0
3.003883664E1,-1.062348843E0,-6.366825104E-1,-1.367626190E-1
3.005766268E1,-5.064792633E-1,-5.867757797E-1,2.457196712E-1
3.007648877E1,-4.573574066E-1,8.310136795E-1,6.046674252E-1
3.009531486E1,-3.836596012E-1,1.476264000E0,7.854607105E-1
3.011414091E1,-1.040918827E0,2.684768677E0,9.102425575E-1
3.013296700E1,-1.886632681E0,3.580397606E0,7.764048576E-1
3.015179309E1,-2.314340115E0,2.867854118E0,4.352421761E-1
3.017061914E1,-2.231888294E0,9.359192848E-1,4.164314270E-1
3.018944523E1,-1.672631264E0,-9.118232727E-1,4.742040634E-1
3.020825820E1,-6.879057884E-1,-2.500411510E0,4.790303707E-1
3.022709736E1,2.121229172E-1,-3.380093098E0,4.965765476E-1
3.024592346E1,6.002306938E-1,-3.101488113E0,1.075567484E0
3.026474955E1,7.181324959E-1,-1.843642235E0,1.417291880E0
3.028357559E1,5.418105125E-1,-2.786889076E-1,1.799687147E0
3.030240169E1,-1.247177124E-1,1.495124340E0,2.065694809E0
3.032122778E1,-8.444590569E-1,2.022174835E0,2.265054226E0
3.034005382E1,-6.922616959E-1,6.615114212E-1,2.739682913E0
3.035887992E1,-4.044857025E-1,-3.482823372E-1,3.086055279E0
3.037770601E1,-4.539470673E-1,-1.198298454E0,2.309337378E0
3.039653210E1,-7.287774086E-1,-2.151805162E0,1.376967669E0
3.041535815E1,-7.262330055E-1,-2.445572615E0,5.963561535E-1
3.043418424E1,-1.402702332E-1,-1.619786739E0,2.725210190E-1
3.045301033E1,8.116688728E-1,-7.311801910E-1,1.149260998E-1
3.047183638E1,1.323389053E0,-5.121526718E-1,7.691979408E-2
3.049066247E1,1.133091927E0,-7.983555794E-1,1.203250885E-2
3.050948856E1,4.848508835E-1,-1.063346148E0,-2.999761105E-1
3.052831466E1,-4.352598190E-1,-1.223738670E0,-7.742846012E-1
3.054714070E1,-1.044481277E0,-1.433967590E0,-1.110873222E0
3.056596679E1,-9.015636444E-1,-1.588485241E0,-1.121598959E0
3.058479289E1,-2.243843079E-1,-1.356603146E0,-8.918874264E-1
3.060361898E1,1.424279213E-1,-9.741652012E-1,-7.659559250E-1
3.062244502E1,-6.432056427E-3,-7.896895409E-1,-7.104899883E-1
3.064127111E1,-3.622317314E-1,-6.865673065E-1,-5.831928253E-1
3.066009721E1,-3.177661896E-1,-2.746133804E-1,-2.696278095E-1
3.067892330E1,-2.237987518E-2,6.303334236E-1,8.005216122E-1
3.069774934E1,6.508712769E-1,9.537253380E-1,1.611118317E0
3.071657544E1,1.094559193E0,5.051164627E-1,2.323936462E0
3.073540153E1,9.922876358E-1,-2.669668198E-2,2.907898188E0
3.075422763E1,7.174344063E-1,-8.135128021E-2,3.419681549E0
3.077305372E1,8.150868416E-1,5.305600166E-1,2.870716095E0
3.079187976E1,1.627063751E-1,7.754769325E-1,1.405111074E0
3.081070585E1,-1.236587048E0,2.262239456E-1,8.957095146E-1
3.082953195E1,-1.003981113E0,-3.479225636E-1,1.606266022E0
3.084835804E1,1.180196285E0,-3.818845749E-1,2.380902767E0
3.086718408E1,3.813472033E0,-3.033351898E-2,1.837893486E0
3.088599710E1,5.833377838E0,2.552213669E-1,9.435133934E-1
3.090483627E1,7.563577175E0,-4.311065674E-1,7.089986801E-1
3.092366236E1,8.821964264E0,-7.685890198E-1,1.199884892E0
3.094248846E1,9.103170395E0,-8.615236282E-1,4.234714508E-1
3.096131455E1,7.882971764E0,-8.917255402E-1,-1.164197922E-2
3.098014059E1,6.336324692E0,-9.906880856E-1,-9.574890137E-2
3.099895356E1,4.761579990E0,-6.606278419E-1,2.835121155E-1
3.101779278E1,2.740119457E0,3.519353867E-1,1.581796169E0
3.103661888E1,1.261096001E-1,1.270359993E0,2.576920033E0
3.105543184E1,-1.998978138E0,1.196704865E0,2.428602219E0
3.107427101E1,-2.718560696E0,5.671796799E-1,2.259680748E0
3.109309710E1,-2.507197857E0,5.962953568E-1,1.840217113E0
3.111192320E1,-2.793102264E0,1.651354313E0,2.221362114E0
3.113074929E1,-1.912544250E0,1.963542938E0,3.129435062E0
3.114957539E1,-2.958807945E-1,1.150014877E0,3.829551697E0
3.116840148E1,7.206916809E-3,3.515048027E-1,3.756796360E0
3.118722757E1,-1.327545643E0,7.224087715E-1,2.998102665E0
3.120605367E1,-1.834813595E0,1.206074715E0,2.351361752E0
3.122487971E1,-1.702805519E0,1.769618988E0,2.054075241E0
3.124370580E1,-1.918006897E0,1.369128704E0,1.690736771E0
3.126253190E1,-2.003558636E0,2.975158691E-1,1.106001854E0
3.128135799E1,-2.599944830E0,-1.394162178E-1,3.047819138E-1
3.130018408E1,-3.421011925E0,-9.894657135E-2,5.796527863E-2
3.131901018E1,-3.763334274E0,-2.800784111E-1,-1.911592484E-1
3.133783627E1,-4.741126060E0,-3.278346062E-1,-8.188667297E-1
3.135666231E1,-5.343601227E0,-2.608900070E-1,-1.234169960E0
3.137548841E1,-5.512406349E0,-1.242895126E-1,-1.542724609E0
3.139431450E1,-5.147728443E0,3.287525177E-1,-1.213262558E0
3.141314059E1,-4.451650620E0,7.545824051E-1,-7.364158630E-1
3.143196669E1,-3.514208794E0,9.993457794E-1,2.660388947E-1
3.145079278E1,-3.495826244E0,7.593355179E-1,-1.456241608E-1
3.146961888E1,-4.069904804E0,4.514865875E-1,-1.136374474E0
3.148844492E1,-3.728957176E0,5.165271759E-1,-1.394092560E0
3.150727101E1,-3.575752258E0,7.868576050E-1,-1.192842960E0
3.152609710E1,-3.174305439E0,1.240702629E0,-8.225312233E-1
3.154492320E1,-2.749534130E0,1.196089029E0,-1.262485504E0
3.156374929E1,-2.248455524E0,1.482810497E0,-8.667168617E-1
3.158257539E1,-2.401674271E0,2.198368073E0,-7.779016495E-1
3.160140148E1,-2.548857689E0,2.203664541E0,-1.258263111E0
3.162022757E1,-1.663107872E0,1.820841789E0,-9.147572517E-1
3.163905367E1,-1.221085072E0,1.497603893E0,-4.921140671E-1
3.165787976E1,-1.042223454E0,1.048339605E0,-9.159421921E-2
3.167670585E1,-1.207696438E0,1.267967701E0,2.745933533E-1
3.169553195E1,-1.907472610E0,1.379862785E0,-3.579416275E-1
3.171435804E1,-2.185637474E0,1.644166708E0,-1.046393871E0
3.173318408E1,-1.867085934E0,1.812370777E0,-1.430404186E0
3.175201018E1,-1.549087048E0,2.276527643E0,-2.107588768E0
3.177083627E1,-1.000454903E0,3.226849556E0,-1.593501568E0
3.178966236E1,-7.618155479E-1,3.277320623E0,-1.248456478E0
3.180848846E1,-7.191395760E-1,2.989490986E0,-1.368111134E0
3.182731455E1,-7.131938934E-1,3.278736591E0,-1.710605621E0
3.184614065E1,-4.330654144E-1,3.567716122E0,-2.252735138E0
3.186496674E1,2.518439293E-1,4.276910782E0,-2.414878845E0
3.188379283E1,1.664363146E0,5.155600548E0,-1.924575329E0
3.190261893E1,2.869413376E0,5.162294388E0,-7.608504295E-1
3.192144502E1,2.673692226E0,4.147974491E0,4.529781342E-1
3.194027111E1,1.529321909E0,2.643155575E0,5.254225731E-1
3.195909721E1,2.318606377E-1,1.959269285E0,4.231252670E-1
3.197792330E1,-1.110327244E0,1.673682451E0,-3.071928024E-2
3.199674934E1,-1.625109673E0,1.545175552E0,-1.090375423E0
3.201557544E1,-3.713507652E-1,1.826000929E0,-4.111418724E-1
3.203440153E1,5.994672775E-1,7.872285843E-1,5.406866074E-1
3.205322763E1,1.222124100E-1,-3.522295952E-1,4.320979118E-1
3.207205372E1,-5.649619102E-1,-1.082751751E0,-1.223764420E-1
3.209087981E1,-1.042284489E0,-1.236714363E0,-5.209913254E-1
3.210970591E1,-1.400656700E0,-1.324296474E0,-8.444175720E-1
3.212853200E1,-8.256521225E-1,-7.554016113E-1,-1.320042610E0
3.214735809E1,2.409629822E-1,-7.560653687E-1,-1.255890846E0
3.216618419E1,9.155008793E-1,-8.867950439E-1,-1.433782578E0
3.218501028E1,7.936880589E-1,-9.170932770E-1,-2.101222515E0
3.220383632E1,9.080817699E-1,-1.681850910E0,-2.292671204E0
3.222266247E1,8.484170437E-1,-2.732047081E0,-2.177284241E0
3.224148856E1,-2.666687965E-1,-2.155989647E0,-2.323769093E0
3.226031460E1,-1.031233311E0,-6.035737991E-1,-2.734972477E0
3.227914070E1,-8.659312725E-1,-2.126560211E-1,-2.302965641E0
3.229796679E1,-7.769136429E-1,-5.892090797E-1,-1.830469131E0
3.231679289E1,-1.239195585E0,-1.058787346E0,-1.660032272E0
3.233561898E1,-1.646407843E0,-1.283740997E0,-1.579828262E0
3.235444507E1,-1.545863152E0,-1.584374428E0,-1.021635532E0
3.237327117E1,-1.042562246E0,-2.260678291E0,-6.749548912E-1
3.239209726E1,-6.801197529E-1,-2.562186718E0,-4.521446228E-1
3.241092335E1,-7.662181854E-1,-2.446583748E0,-2.321577072E-1
3.242974945E1,-1.499040604E0,-1.796410084E0,-3.602991104E-1
3.244857554E1,-2.151934624E0,-3.089556694E-1,-7.091202736E-1
3.246738851E1,-2.919650316E0,2.021111965E0,-1.343390942E0
3.248622773E1,-2.735980272E0,5.117291927E0,-1.859038830E0
3.250505382E1,-7.445880175E-1,6.070180416E0,-1.605310440E0
3.252386679E1,1.036011696E0,2.763497114E0,-1.322494984E0
3.254270601E1,9.792651534E-1,8.932375908E-1,-2.926593781E0
3.256153210E1,-7.428272963E-1,2.747395039E0,-4.189552307E0
3.258035815E1,-1.376138091E0,3.964994669E0,-3.681958199E0
3.259918424E1,-5.225743055E-1,3.244312763E0,-2.489168644E0
3.261801033E1,5.784481764E-1,2.097950459E0,-1.689338207E0
3.263683643E1,7.760794163E-1,1.107799530E0,-1.268662930E0
3.265566252E1,3.020737171E-1,7.394723892E-1,-8.039011955E-1
3.267448861E1,-5.397965908E-1,1.131988287E0,-3.530712128E-1
3.269330158E1,-1.849200487E0,1.433302402E0,-2.443389893E-1
3.271214080E1,-2.796889067E0,1.793802857E0,-4.463534355E-1
3.273096690E1,-3.610684395E0,2.270657539E0,-1.161149025E0
3.274979299E1,-4.476352215E0,1.884168506E0,-1.032893181E0
3.276861908E1,-4.506200314E0,1.226471305E0,4.359197617E-2
3.278744518E1,-3.648703098E0,1.399631262E0,8.369803429E-1
3.280627127E1,-2.857621193E0,2.163634539E0,9.472703934E-1
3.282509736E1,-2.386461735E0,2.370904684E0,1.600078106E0
3.284392346E1,-1.322387218E0,1.481699586E0,2.138446808E0
3.286274955E1,-9.086608887E-2,5.264109373E-1,2.532316685E0
3.288157565E1,2.411236763E-1,9.462742209E-1,2.268377304E0
3.290040174E1,-4.617657661E-1,1.884263277E0,2.313659668E0
3.291922783E1,-1.211162090E0,1.997181177E0,1.881758690E0
3.293805393E1,-1.356761932E0,1.591546059E0,1.398741722E0
3.295688002E1,-8.374481201E-1,1.151772976E0,5.564961433E-1
3.297570611E1,-1.084470749E-2,8.420443535E-1,4.630780220E-1
3.299453221E1,3.019075394E-1,8.361085653E-1,8.254384995E-1
3.301335830E1,4.713225365E-1,8.660733700E-1,6.262779236E-1
3.303218440E1,5.765552521E-1,4.012581408E-1,5.668640137E-1
3.305101049E1,4.130702019E-1,-9.675288200E-2,5.175647736E-1
3.306983658E1,7.185769081E-1,-2.385713458E-1,4.753341675E-1
3.308866268E1,1.771038055E0,-4.451417029E-1,6.667814255E-1
3.310748877E1,2.675947428E0,-4.073427618E-1,1.504957199E0
3.312631486E1,2.942868948E0,6.804694235E-2,1.614271164E0
3.314514096E1,2.153072834E0,5.089871883E-1,1.043109894E0
3.316396705E1,9.100108147E-1,7.568672895E-1,-3.145589828E-1
3.318279315E1,-4.235000610E-1,3.733620644E-1,-1.000359058E0
3.320161924E1,-3.834447861E-1,-3.865635693E-1,-1.376538754E0
3.322044533E1,6.177139282E-1,-5.894429684E-1,-1.706276417E0
3.323927143E1,1.639028311E0,-1.419875622E-1,-1.581548691E0
3.325809752E1,2.689971685E0,-1.275022030E-1,-1.448392391E0
3.327692361E1,3.017628193E0,-2.359735966E-1,-7.067899704E-1
3.329574971E1,2.203696728E0,-4.214495420E-1,-6.409425735E-1
3.331457580E1,1.378084183E0,-7.123492360E-1,-1.400556087E0
3.333340190E1,8.346948624E-1,-9.902560115E-1,-2.599405289E0
3.335222799E1,3.916916847E-1,-1.284340620E0,-3.339173794E0
3.337105408E1,-1.669592857E-1,-1.528167486E0,-3.369742870E0
3.338988018E1,-9.973835945E-1,-1.646142125E0,-3.116950035E0
3.340870627E1,-1.535707474E0,-1.913123250E0,-2.788035393E0
3.342753236E1,-1.766019344E0,-1.939222336E0,-2.251569271E0
3.344635846E1,-2.000026226E0,-1.610654593E0,-1.182707310E0
3.346518455E1,-1.975077152E0,-8.365774155E-1,-3.784794807E-1
3.348401065E1,-2.125230789E0,-4.616832733E-1,-6.734848022E-2
3.350283674E1,-2.346680164E0,-6.227555275E-1,-1.681232452E-2
3.352166283E1,-2.017801762E0,-7.762515545E-1,-5.184121132E-1
3.354047585E1,-1.392632484E0,-8.021106720E-1,-2.447324514E0
3.355931507E1,-1.346873283E0,5.943713188E-1,-2.945789099E0
3.357814117E1,-9.212646484E-1,2.681336403E0,-2.203584671E0
3.359696726E1,3.152346611E-1,2.039912701E0,-1.536067009E0
3.361579335E1,1.215864182E0,1.746910095E0,3.208527565E-1
3.363461945E1,1.542156696E0,1.827542305E0,1.450737000E0
3.365344554E1,4.416766167E-1,1.761240005E0,1.917276859E0
3.367227164E1,-2.221584797E0,1.329553127E0,2.121607780E0
3.369109773E1,-5.149676800E0,6.575479507E-1,1.964903355E0
3.370992382E1,-6.914157867E0,2.734851837E-1,1.889776707E0
3.372874992E1,-7.250219345E0,-1.209392548E-1,2.170348406E0
3.374757601E1,-6.125478745E0,4.169559479E-1,2.471687555E0
3.376638903E1,-3.923992872E0,1.067999840E0,2.027457952E0
3.378522825E1,-2.197903633E0,1.550748825E0,1.199016094E0
3.380405434E1,-1.313427687E0,1.956226349E0,4.928030968E-1
3.382288044E1,-1.209845066E0,1.719916344E0,-7.352566719E-2
3.384170653E1,-1.192389250E0,7.712087631E-1,-7.020699978E-1
3.386053263E1,-1.175178051E0,-3.993120193E-1,-1.231458306E0
3.387935872E1,-1.092694283E0,-1.004089832E0,-1.329411745E0
3.389818486E1,-6.873781681E-1,-1.032787800E0,-1.254262090E0
3.391701096E1,-1.309776306E-1,-5.938024521E-1,-1.128664255E0
3.393583705E1,4.226953983E-1,3.278541565E-2,-1.027376413E0
3.395466315E1,8.756887913E-1,4.141464233E-1,-1.041561842E0
3.397348924E1,1.215648174E0,5.444784164E-1,-1.114617586E0
3.399231533E1,1.504191756E0,4.466295242E-1,-9.161934853E-1
3.401114693E1,1.575689435E0,6.043653488E-1,-8.620128632E-1
3.402997308E1,1.562085986E0,6.523675919E-1,-7.921071053E-1
3.404879917E1,1.599789023E0,8.597850800E-1,-7.176547050E-1
3.406762526E1,1.536984682E0,1.217726707E0,-5.360581875E-1
3.408645136E1,1.179191828E0,1.610268593E0,-2.761492729E-1
3.410527745E1,7.753462791E-1,1.641715050E0,-1.683278084E-1
3.412410355E1,3.825340271E-1,1.480563164E0,-2.660474777E-1
3.414292969E1,-2.281250954E-1,1.813414574E0,-4.159529209E-1
3.416175579E1,-6.321165562E-1,2.216646194E0,-4.626028538E-1
3.418058188E1,-4.866964817E-1,1.700850487E0,-1.899163723E-1
3.419940797E1,1.858558655E-1,-2.737808228E-1,1.853022575E-1
3.421822094E1,6.684107780E-1,-2.585621357E0,4.314413071E-1
3.423706016E1,8.233122826E-1,-3.897469997E0,6.090271473E-1
3.425588625E1,6.208226681E-1,-2.839258671E0,3.790378571E-1
3.427469928E1,3.862700462E-1,-9.286956787E-1,2.622504234E-1
3.429353849E1,3.964540958E-1,9.618797302E-1,-1.556491852E-2
3.431236459E1,4.648687840E-1,2.208693504E0,2.657709122E-1
3.433119068E1,4.323379993E-1,2.496991158E0,6.933922768E-1
3.435001678E1,-2.078192234E-1,2.007557869E0,9.768466949E-1
3.436884287E1,-9.738752842E-1,4.734544754E-1,6.319947243E-1
3.438766901E1,-1.302317381E0,-8.667030334E-1,4.022939205E-1
3.440649511E1,-1.064853430E0,-1.185231209E0,4.847557545E-1
3.442532120E1,-6.159141064E-1,-4.638977051E-1,7.488424778E-1
3.444414730E1,-2.890956402E-1,2.662296295E-1,7.693428993E-1
3.446297339E1,-1.666865349E-1,4.597845078E-1,6.868500710E-1
3.448179948E1,-3.079030514E-1,-7.932472229E-2,3.687946796E-1
3.450062563E1,-6.301639080E-1,-1.115420818E0,-6.934499741E-2
3.451945172E1,-5.971388817E-1,-1.669302940E0,-5.144588947E-1
3.453827782E1,-9.431529045E-2,-9.686098099E-1,-4.997465611E-1
3.455710391E1,6.820905209E-1,1.245946884E-1,-1.289007664E-1
3.457593000E1,1.480388641E0,4.749917984E-1,1.865520477E-1
3.459475610E1,1.698701739E0,4.377250671E-1,7.090926170E-2
3.461358224E1,1.101553202E0,1.270265579E-1,-4.388893843E-1
3.463240834E1,-4.159569740E-2,-5.477447510E-1,-1.049132347E0
3.465123443E1,-9.121482372E-1,-1.283210754E0,-1.454872251E0
3.467006053E1,-1.035326958E0,-1.415327072E0,-1.276147604E0
3.468888667E1,-6.450364590E-1,-6.615314484E-1,-1.039389253E0
3.470771276E1,-2.551720142E-1,3.084001541E-1,-9.179672003E-1
3.472653886E1,-4.187059402E-2,1.291589737E0,-8.218693733E-1
3.474536495E1,-7.851219177E-2,2.358838081E0,-8.175617456E-1
3.476419105E1,-2.579441071E-1,2.448451996E0,-6.879708767E-1
3.478301719E1,-6.068916321E-1,1.682909012E0,-3.980829716E-1
3.480184329E1,-1.193483353E0,5.078258514E-1,-2.740561962E-1
3.482066938E1,-1.854224682E0,-9.518699646E-1,-4.164661169E-1
3.483949547E1,-2.140873194E0,-1.769990921E0,-2.618073225E-1
3.485832157E1,-1.700018644E0,-1.998711109E0,1.205403805E-1
3.487714771E1,-8.334889412E-1,-2.021218300E0,5.470298529E-1
3.489597381E1,-8.187770844E-3,-1.271763802E0,1.136259675E0
3.491479990E1,9.136605263E-1,1.080484390E-1,2.068089008E0
3.493362599E1,1.702307940E0,1.667129517E0,1.967928290E0
3.495245209E1,1.662855148E0,2.468293190E0,1.467195988E0
3.497127823E1,1.173483133E0,2.386831284E0,1.728675246E0
3.499010433E1,8.311233521E-1,2.013934135E0,1.811198473E0
3.500893042E1,6.310391426E-1,1.152565956E0,2.351587296E0
3.502775651E1,7.407355309E-1,4.885463715E-1,2.820308208E0
3.504658266E1,1.074866772E0,3.548431396E-2,2.003212929E0
3.506540875E1,1.204047680E0,8.740377426E-2,1.179993987E0
3.508423485E1,1.355376244E0,-1.005477905E-1,1.092582464E0
3.510306094E1,1.599337101E0,-5.234894753E-1,1.666230321E0
3.512188709E1,1.675860643E0,-1.036610126E0,1.638107061E0
3.514071318E1,1.341155529E0,-1.293005466E0,1.033632278E0
3.515953928E1,7.638692856E-1,-1.314446449E0,2.330701351E-1
3.517836537E1,6.960868835E-2,-1.145358562E0,-3.074058294E-1
3.519719146E1,-2.953929901E-1,-1.274709702E0,-4.555681944E-1
3.521601761E1,-3.077116013E-1,-1.471593380E0,-6.006669998E-2
3.523484370E1,-2.362833023E-1,-1.291017056E0,2.924993038E-1
3.525366980E1,-7.750844955E-2,-1.107098579E0,-2.677989006E-2
3.527249589E1,-3.909063339E-2,-9.015722275E-1,-4.880800247E-1
3.529132204E1,-1.824316978E-1,-7.182397842E-1,-2.698063850E-1
3.531014813E1,-6.972217560E-2,-3.704233170E-1,2.452993393E-1
3.532897422E1,8.591556549E-2,4.821138382E-1,3.259754181E-1
3.534780032E1,-3.617601395E-1,1.426605225E0,-2.871904373E-1
3.536662646E1,-8.379011154E-1,1.650410652E0,-7.230300903E-1
3.538545256E1,-8.059315681E-1,1.761527061E0,-5.991436243E-1
3.540427865E1,-5.490498543E-1,1.829666138E0,-4.282069206E-2
3.542310474E1,-5.195851326E-1,1.716938019E0,4.737081528E-1
3.544193089E1,-2.967386246E-1,9.953889847E-1,7.249112129E-1
3.546075698E1,3.471794128E-1,2.766942978E-1,2.926189899E-1
3.547958308E1,1.028743982E0,-1.429853439E-1,-3.222037554E-1
3.549840922E1,1.347765207E0,4.938411713E-2,-6.650393009E-1
3.551723532E1,1.339889050E0,9.483194351E-1,-6.979632378E-1
3.553606141E1,1.466646910E0,1.127366066E0,-1.115497351E0
3.555488756E1,1.656876326E0,6.576766968E-1,-1.770706177E0
3.557371365E1,1.365651369E0,6.082229614E-1,-2.342324257E0
3.559253974E1,1.090656519E0,6.306495667E-1,-2.638689995E0
3.561136584E1,1.416727781E0,1.413736343E0,-2.265360117E0
3.563019198E1,2.794650078E0,6.685104370E-1,-1.009338498E0
3.564901808E1,3.597005367E0,4.183712006E-1,-1.847660542E-1
3.566784417E1,3.854538918E0,6.101980209E-1,9.614467621E-3
3.568667032E1,3.926217079E0,1.090887070E0,-5.389690399E-3
3.570549641E1,3.165554523E0,1.340343475E0,-4.726076126E-1
3.572432250E1,2.498773813E0,1.312658310E0,-1.287899375E0
3.574314860E1,2.587615252E0,1.036669731E0,-1.850441217E0
3.576197474E1,2.898896694E0,8.935794830E-1,-2.023535013E0
3.578080084E1,3.006154537E0,1.053179741E0,-1.962753177E0
3.579962693E1,3.047905922E0,1.363066673E0,-1.733236074E0
3.581845308E1,3.216239691E0,1.290655136E0,-1.545383215E0
3.583727917E1,3.335463285E0,1.436150551E0,-9.956065416E-1
3.585610526E1,2.965725422E0,1.989049911E0,-2.625979185E-1
3.587493141E1,2.342507362E0,2.347347260E0,-9.915101528E-2
3.589375750E1,1.502920151E0,2.750948906E0,-3.055738211E-1
3.591258360E1,3.161203861E-1,2.868073463E0,-5.689874887E-1
3.593140974E1,-7.947539091E-1,2.516159058E0,-7.953220606E-1
3.595023584E1,-1.359555364E0,2.114234924E0,-2.544050217E-1
3.596906193E1,-1.355102539E0,1.638827324E0,3.707270622E-1
3.598788808E1,-9.415491819E-1,5.354337692E-1,2.976024151E-1
3.600671417E1,-6.353410482E-1,-2.362155914E-2,6.730806828E-1
3.602554026E1,5.958878994E-2,-6.044540405E-1,8.041505814E-1
3.604436641E1,1.122582316E0,-1.114340782E0,7.024700642E-1
3.606319250E1,1.991566658E0,-8.111085892E-1,5.572214127E-1
3.608201860E1,2.222457409E0,-5.772523880E-1,2.865147591E-1
3.610084474E1,1.588284731E0,-5.752859116E-1,-5.352573395E-1
3.611967084E1,3.168827891E-1,-8.007068634E-1,-1.157044649E0
3.613848386E1,-1.371118069E0,-5.255527496E-1,-1.315161467E0
3.615732308E1,-2.572316170E0,4.100131989E-2,-1.853031278E0
3.617614917E1,-3.499851942E0,5.033922195E-1,-2.094810486E0
3.619497526E1,-3.782968521E0,1.065532684E0,-1.546346903E0
3.621380141E1,-3.999814510E0,1.059668541E0,-1.427325726E0
3.623262750E1,-4.619422913E0,4.707326889E-1,-1.968300819E0
3.625145365E1,-4.945814610E0,-3.110046387E-1,-1.911247015E0
3.627027974E1,-4.423084259E0,-7.573604584E-1,-1.820923805E0
3.628910584E1,-4.062741756E0,-9.535875320E-1,-1.597884178E0
3.630793198E1,-3.600119352E0,-1.122673988E0,-1.519589901E0
3.632675808E1,-3.505290985E0,-7.497448921E-1,-6.601982117E-1
3.634558422E1,-3.079370260E0,-6.691465378E-1,-7.080340385E-1
3.636441032E1,-3.480338573E0,-8.867902756E-1,-1.664359331E0
3.638323646E1,-4.117358208E0,-6.969056129E-1,-8.812909126E-1
3.640206256E1,-3.411336184E0,3.884792328E-2,1.424999237E-1
3.642088870E1,-3.327750206E0,1.017759800E0,5.343661308E-1
3.643971480E1,-3.803088903E0,1.258952141E0,3.028750420E-1
3.645854089E1,-3.177203178E0,1.146239281E0,5.231404305E-1
3.647736704E1,-1.305728912E0,1.427474022E-1,-2.472772598E-1
3.649619313E1,-4.579343796E-1,-3.264660835E-1,-9.047639370E-1
3.651501928E1,-1.524662971E-1,-4.000244141E-1,-1.197679758E0
3.653384537E1,4.668569565E-2,4.085292816E-1,-1.336666346E0
3.655267151E1,-1.574301720E-1,2.726441860E0,-6.562085152E-1
3.657149761E1,-1.014127731E-1,3.452578068E0,1.225252151E-1
3.659032375E1,-5.487051010E-1,2.931355476E0,1.585461140E0
3.660914985E1,-1.779902935E0,2.120591640E0,2.243784904E0
3.662797594E1,-2.261775494E0,1.489722729E0,2.195198536E0
3.664680209E1,-1.788082600E0,2.445878029E0,1.891933680E0
3.666562818E1,-3.852601051E-1,3.386357784E0,2.599343538E0
3.668445433E1,3.389444351E-1,2.111933231E0,2.512727976E0
3.670326730E1,-7.580966949E-1,4.885120392E-1,8.563492298E-1
3.672210657E1,-1.397141457E0,-3.091449738E-1,-2.059388161E-1
3.674093266E1,-4.867115021E-1,-1.220409870E-1,-3.609082699E-1
3.675975875E1,1.113078117E0,2.107150555E-1,-4.066686630E-1
3.677858490E1,1.281223297E0,6.215929985E-1,6.568908691E-3
3.679741099E1,1.927013397E-1,8.566097021E-1,-2.393114567E-1
3.681623714E1,-6.872634888E-1,7.473450899E-2,-1.223142862E0
3.683506323E1,-4.738330841E-1,1.423819065E-1,-1.124646664E0
3.685388938E1,-2.481489182E-1,5.747659206E-1,-1.008696079E0
3.687271547E1,-5.425958633E-1,4.849084020E-1,-1.275204420E0
3.689154162E1,-1.011201859E0,8.501267433E-2,-1.717264652E0
3.691036771E1,-1.383798599E0,-2.232812643E-1,-2.219517231E0
3.692919381E1,-1.538664818E0,-3.472222090E-1,-2.853421211E0
3.694801995E1,-1.597708702E0,-5.670309067E-2,-3.087209463E0
3.696684605E1,-1.659205437E0,4.530277252E-1,-2.720789671E0
3.698567219E1,-1.773897171E0,7.129375935E-1,-2.222162485E0
3.700449829E1,-2.087567329E0,8.882122040E-1,-1.890136957E0
3.702332443E1,-2.202534676E0,7.610607147E-1,-2.040184975E0
3.704215053E1,-2.500608444E0,1.793165445E0,-2.488029480E0
3.706097662E1,-2.215578079E0,2.861456394E0,-2.593737125E0
3.707980276E1,-1.341996193E0,4.193000793E0,-2.824037552E0
3.709862886E1,-5.157880783E-1,5.631443024E0,-2.521335840E0
3.711745500E1,8.369479179E-1,6.563955307E0,-2.192954779E0
3.713628110E1,2.262104511E0,6.302429199E0,-1.442295551E0
3.715509412E1,3.402684212E0,6.074888706E0,-2.579243183E-1
3.717393334E1,4.251855850E0,6.093082905E0,5.361690521E-1
3.719275948E1,4.161742210E0,5.339033127E0,1.094936371E0
3.721158558E1,3.704555750E0,4.032564163E0,1.255775928E0
3.723041172E1,2.403453350E0,3.398226500E0,1.598865986E0
3.724923782E1,3.913097382E-1,2.205838680E0,2.582646132E0
3.726805084E1,-1.157621384E0,4.062786102E-1,2.680966854E0
3.728689006E1,-2.470463276E0,-2.922000885E-1,1.728459597E0
3.730571615E1,-3.438491821E0,2.558460236E-1,1.324968338E0
3.732454230E1,-3.528917313E0,1.300155640E0,9.920144081E-1
3.734336839E1,-2.669452190E0,1.533996582E0,7.852215767E-1
3.736219454E1,-1.564056396E0,1.216496944E0,6.482014656E-1
3.738100750E1,6.387376785E-1,5.668339729E-1,6.581373215E-1
3.739984678E1,2.619063139E0,1.199350834E0,1.144730568E0
3.741867287E1,3.251193285E0,2.690791607E0,1.544466496E0
3.743749901E1,3.081755638E0,3.105305433E0,1.920431137E0
3.745632511E1,3.110656738E0,2.488281250E0,1.451257706E0
3.747515120E1,3.600520372E0,2.495394707E0,2.070741653E-1
3.749397735E1,3.940660954E0,2.925696135E0,-3.273596764E-1
3.751280349E1,4.504784107E0,2.639249802E0,-1.639990807E-1
3.753162959E1,5.472388268E0,1.400594950E0,2.223610401E0
3.755045568E1,6.091270447E0,3.852272034E-1,3.150919914E0
3.756928183E1,5.077485085E0,4.642324448E-1,3.679769039E0
3.758810797E1,3.288497448E0,1.416038752E0,4.102967739E0
3.760693407E1,2.182410717E0,1.952792406E0,3.617599010E0
3.762576016E1,1.734087706E0,2.137141466E0,2.500452042E0
3.764458631E1,1.136030912E0,1.578647375E0,1.156566143E0
3.766341240E1,5.635738373E-1,8.532028198E-1,-1.009697914E-1
3.768223855E1,4.015049934E-1,4.542107582E-1,-1.351023674E0
3.770106464E1,8.241181374E-1,5.092844963E-1,-2.210618019E0
3.771989079E1,1.014118195E0,9.105887413E-1,-2.332759380E0
3.773871688E1,1.546804428E0,9.359512329E-1,-1.412181854E0
3.775754303E1,2.118571520E0,1.440155745E0,1.865434647E-1
3.777636917E1,1.941752911E0,1.254459143E0,1.071185112E0
3.779519526E1,1.518476725E0,1.088782072E0,6.350221634E-1
3.781402141E1,6.996679306E-1,1.815216422E0,-1.268672943E-1
3.783284750E1,-3.779764175E-1,2.091502666E0,-6.047401428E-1
3.785167365E1,-7.786078453E-1,1.286974907E0,-8.407955170E-1
3.787049974E1,-6.855697632E-1,5.507072210E-1,-9.589052200E-1
3.788932589E1,-6.336417198E-1,7.544522285E-1,-4.081039429E-1
3.790815198E1,-6.562223434E-1,1.300542831E0,7.904243469E-1
3.792697813E1,-3.742041588E-1,7.298539281E-1,1.272959232E0
3.794580422E1,-6.116933823E-1,-4.090704918E-1,1.376409531E-1
3.796463037E1,-1.998663425E0,-4.288869798E-1,-1.026710510E0
3.798345646E1,-3.604174137E0,-3.624922335E-1,-1.789340973E0
3.800228261E1,-4.261661530E0,-1.162241936E0,-1.967028618E0
3.802110875E1,-3.864720345E0,-1.215977788E0,-1.444594383E0
3.803993485E1,-3.348128796E0,-4.123433828E-1,-7.713332176E-1
3.805876099E1,-3.094827175E0,3.902692795E-1,-6.769099236E-1
3.807758709E1,-3.228324413E0,9.070765972E-1,-7.743244171E-1
3.809641323E1,-3.520182610E0,-3.457939625E-2,-8.995809555E-1
3.811523933E1,-3.740462303E0,-6.226137877E-1,-2.247762680E-1
3.813406547E1,-4.135253429E0,-2.932630777E-1,-1.530470848E-1
3.815289157E1,-4.264220238E0,-1.732027531E-1,-6.584706306E-1
3.817171771E1,-4.352480412E0,2.601194382E-2,-7.624874115E-1
3.819054386E1,-4.488460064E0,1.118822098E-1,1.471118927E-1
3.820936995E1,-4.596046448E0,-3.051710129E-2,1.460747719E-1
3.822819610E1,-4.292208672E0,-4.937759638E-1,1.801013947E-2
3.824702219E1,-3.370978832E0,-5.540075302E-1,-3.656749725E-1
3.826584834E1,-3.272826672E0,-6.363893747E-1,-1.595698357E0
3.828467443E1,-3.646100998E0,-5.612277985E-1,-3.085532665E0
3.830350058E1,-2.870943546E0,-3.202075958E-1,-3.904886484E0
3.832232667E1,-1.721417904E0,9.819579124E-2,-3.646151543E0
3.834115282E1,-9.605727196E-1,6.753647327E-1,-2.656292915E0
3.835997896E1,-1.090861797E0,8.888282776E-1,-1.706015587E0
3.837880506E1,-2.163041592E0,9.507117271E-1,-1.521672726E0
3.839761808E1,-3.759472847E0,3.828763962E-1,-2.235261917E0
3.841645730E1,-5.195939541E0,-5.266120434E-1,-2.779578686E0
3.843528344E1,-5.715024471E0,-7.627177238E-1,-3.416142225E0
3.845410959E1,-5.070326328E0,-2.167582512E-1,-2.836061478E0
3.847293568E1,-3.444252491E0,1.896345615E-1,-2.059907436E0
3.849176183E1,-2.314367294E0,4.033946991E-1,-1.508224964E0
3.851058792E1,-1.369398117E0,4.914959669E-1,-1.465466022E0
3.852941407E1,1.868534088E-2,6.083106995E-1,-1.569771767E0
