"Time (s)","Acceleration x (m/s^2)","Acceleration y (m/s^2)","Acceleration z (m/s^2)"
1.800848300E-2,-2.587837696E0,8.549555779E0,4.432105541E0
2.036202500E-2,-2.657827854E0,8.529216766E0,4.387838364E0
2.271556600E-2,-2.770888567E0,8.547162056E0,4.338187218E0
2.506910800E-2,-2.875574589E0,8.593822479E0,4.322035789E0
2.742265000E-2,-2.971287489E0,8.645866394E0,4.358526230E0
2.977619100E-2,-2.972483873E0,8.699107170E0,4.396811485E0
3.212973300E-2,-2.988037348E0,8.737391472E0,4.439284325E0
3.448327500E-2,-2.950948477E0,8.737990379E0,4.516452789E0
3.683681600E-2,-2.919243574E0,8.734400749E0,4.607978344E0
3.919035800E-2,-2.886342287E0,8.672785759E0,4.647459984E0
4.154390000E-2,-2.847458839E0,8.619544983E0,4.629513741E0
4.389744100E-2,-2.813959360E0,8.591429710E0,4.615755081E0
4.625103500E-2,-2.788834810E0,8.572287560E0,4.548755646E0
4.860457700E-2,-2.754737139E0,8.543573380E0,4.515854359E0
5.095811800E-2,-2.716451883E0,8.510073662E0,4.493122578E0
5.331166000E-2,-2.691327333E0,8.452646255E0,4.460221291E0
5.566520200E-2,-2.705085993E0,8.352746010E0,4.479962349E0
5.801874300E-2,-2.723032236E0,8.290532112E0,4.484747887E0
6.037228500E-2,-2.694916487E0,8.280961037E0,4.480560303E0
6.272582700E-2,-2.684746981E0,8.300103188E0,4.437489510E0
6.507936800E-2,-2.627319336E0,8.352746010E0,4.384847641E0
6.743291000E-2,-2.593221426E0,8.362317085E0,4.323232174E0
6.978645200E-2,-2.545963287E0,8.362915039E0,4.323830605E0
7.213999300E-2,-2.531606436E0,8.329415321E0,4.319643021E0
7.449353500E-2,-2.540579557E0,8.295916557E0,4.334000111E0
7.684707700E-2,-2.569293261E0,8.286344528E0,4.352544308E0
7.920061800E-2,-2.565105915E0,8.300702095E0,4.352544308E0
8.155421200E-2,-2.607578516E0,8.333602905E0,4.337589264E0
8.390775400E-2,-2.660220623E0,8.352147102E0,4.345963955E0
8.626129600E-2,-2.673979282E0,8.366504669E0,4.326821327E0
8.861483700E-2,-2.703291416E0,8.380263329E0,4.350151539E0
9.096837900E-2,-2.732005358E0,8.361120224E0,4.402793884E0
9.332192100E-2,-2.761317253E0,8.346763611E0,4.445266247E0
9.567546200E-2,-2.766103029E0,8.313861847E0,4.474578381E0
9.802900400E-2,-2.746960402E0,8.318648338E0,4.474578381E0
1.003825460E-1,-2.755933523E0,8.313861847E0,4.455435753E0
1.027360870E-1,-2.760719061E0,8.318648338E0,4.450650215E0
1.050896290E-1,-2.742174864E0,8.328219414E0,4.441078663E0
1.074431710E-1,-2.737389088E0,8.333004951E0,4.445864677E0
1.097967120E-1,-2.741576433E0,8.337790489E0,4.421936035E0
1.121502540E-1,-2.746362209E0,8.327621460E0,4.407579422E0
1.145038480E-1,-2.745764017E0,8.303692818E0,4.398007870E0
1.168573890E-1,-2.745165825E0,8.289336205E0,4.359723091E0
1.192109310E-1,-2.730808735E0,8.303692818E0,4.354937077E0
1.215644730E-1,-2.721237659E0,8.303692818E0,4.355535507E0
1.239180140E-1,-2.735594511E0,8.303692818E0,4.354937077E0
1.262715560E-1,-2.735594511E0,8.332406998E0,4.345366001E0
1.286250980E-1,-2.755335331E0,8.341978073E0,4.368695736E0
1.309786390E-1,-2.760719061E0,8.370692253E0,4.387838364E0
1.333321810E-1,-2.775076151E0,8.375477791E0,4.411766529E0
1.356857230E-1,-2.779861689E0,8.361120224E0,4.426123619E0
1.380392640E-1,-2.775076151E0,8.365905762E0,4.421338081E0
1.403928060E-1,-2.784647465E0,8.337192535E0,4.450051785E0
1.427463480E-1,-2.803191662E0,8.341380119E0,4.425525665E0
1.450998890E-1,-2.803191662E0,8.327022552E0,4.426123619E0
1.474534830E-1,-2.831905603E0,8.341380119E0,4.435096741E0
1.498070250E-1,-2.869592667E0,8.327022552E0,4.439284325E0
1.521605660E-1,-2.888735056E0,8.345566750E0,4.424329281E0
1.545141080E-1,-2.907877684E0,8.350353241E0,4.424329281E0
1.568676500E-1,-2.903092146E0,8.379066467E0,4.404588223E0
1.592211910E-1,-2.903690338E0,8.388637543E0,4.433301926E0
1.615747330E-1,-2.894119024E0,8.383852005E0,4.424329281E0
1.639282750E-1,-2.894119024E0,8.369495392E0,4.443471432E0
1.662818160E-1,-2.903690338E0,8.379066467E0,4.443471432E0
1.686353580E-1,-2.884547710E0,8.369495392E0,4.424329281E0
1.709889000E-1,-2.864806890E0,8.345566750E0,4.415356159E0
1.733424410E-1,-2.836092949E0,8.331808090E0,4.411168575E0
1.756959830E-1,-2.826521635E0,8.298309326E0,4.401597023E0
1.780495250E-1,-2.812762976E0,8.274978638E0,4.440480709E0
1.804031180E-1,-2.788834810E0,8.260622025E0,4.450650215E0
1.827566600E-1,-2.774477959E0,8.260622025E0,4.455435753E0
1.851102020E-1,-2.802593470E0,8.260622025E0,4.440480709E0
1.874637430E-1,-2.788236618E0,8.231907845E0,4.436293125E0
1.898172850E-1,-2.802593470E0,8.255836487E0,4.416552544E0
1.921708270E-1,-2.797209740E0,8.240880966E0,4.398007870E0
1.945243680E-1,-2.773879766E0,8.227122307E0,4.417150497E0
1.968779100E-1,-2.778665304E0,8.227122307E0,4.417150497E0
1.992314520E-1,-2.787638426E0,8.203194618E0,4.402793884E0
2.015849930E-1,-2.763111830E0,8.193622589E0,4.384249210E0
2.039385350E-1,-2.744567633E0,8.198408127E0,4.393820763E0
2.062920770E-1,-2.730210543E0,8.165507317E0,4.394418716E0
2.086456180E-1,-2.720639229E0,8.170292854E0,4.389633179E0
2.109991600E-1,-2.702095032E0,8.160721779E0,4.418945312E0
2.133527540E-1,-2.682952404E0,8.161319733E0,4.404588223E0
2.157062430E-1,-2.678765059E0,8.190033913E0,4.442873478E0
2.180598370E-1,-2.674577475E0,8.180462837E0,4.457828522E0
2.204133790E-1,-2.669791937E0,8.194819450E0,4.467400074E0
2.227669210E-1,-2.665604353E0,8.214560509E0,4.481158733E0
2.251204620E-1,-2.627917528E0,8.209774017E0,4.496113777E0
2.274740040E-1,-2.632703066E0,8.233702660E0,4.486542225E0
2.298275460E-1,-2.651845694E0,8.243273735E0,4.490729809E0
2.321810870E-1,-2.670988321E0,8.261817932E0,4.481158733E0
2.345346290E-1,-2.661417007E0,8.271389961E0,4.471587181E0
2.368881710E-1,-2.679961443E0,8.285746574E0,4.447061062E0
2.392417120E-1,-2.732005358E0,8.294719696E0,4.422534466E0
2.415952540E-1,-2.727817774E0,8.304290771E0,4.446462631E0
2.439487960E-1,-2.746960402E0,8.328219414E0,4.465006828E0
2.463023370E-1,-2.757129908E0,8.352147102E0,4.484149456E0
2.486558790E-1,-2.757129908E0,8.371290207E0,4.478765965E0
2.510094730E-1,-2.766103029E0,8.361120224E0,4.454837322E0
2.533630140E-1,-2.799602509E0,8.361120224E0,4.449453831E0
2.557165560E-1,-2.833101988E0,8.394021988E0,4.448855400E0
2.580700980E-1,-2.856431961E0,8.374878883E0,4.444069862E0
2.604236390E-1,-2.874976397E0,8.369495392E0,4.443471432E0
2.627771810E-1,-2.894717216E0,8.393424034E0,4.457828522E0
2.651307230E-1,-2.918047190E0,8.412566185E0,4.447659016E0
2.674842640E-1,-2.946761131E0,8.426324844E0,4.451846600E0
2.698378060E-1,-2.951546669E0,8.431110382E0,4.456632137E0
2.721913480E-1,-2.952144861E0,8.435895920E0,4.470989227E0
2.745448890E-1,-2.952144861E0,8.426324844E0,4.475774765E0
2.768984310E-1,-2.937189817E0,8.393424034E0,4.466801643E0
2.792519730E-1,-2.950948477E0,8.349754333E0,4.457230568E0
2.816055140E-1,-2.903092146E0,8.312067986E0,4.462614059E0
2.839591080E-1,-2.879163742E0,8.279166222E0,4.448855400E0
2.863126500E-1,-2.845066071E0,8.236095428E0,4.430909157E0
2.886661910E-1,-2.811566591E0,8.236095428E0,4.416552544E0
2.910197330E-1,-2.778067112E0,8.212765694E0,4.412364960E0
2.933732750E-1,-2.735594511E0,8.227122307E0,4.384249210E0
2.957268160E-1,-2.706880569E0,8.218149185E0,4.384847641E0
2.980803580E-1,-2.687139750E0,8.194221497E0,4.371088982E0
3.004339000E-1,-2.650051117E0,8.194819450E0,4.390829563E0
3.027874410E-1,-2.621337175E0,8.170890808E0,4.396213531E0
3.051409830E-1,-2.598007202E0,8.171489716E0,4.424927235E0
3.074945250E-1,-2.569293261E0,8.166703224E0,4.401597023E0
3.098480660E-1,-2.531008244E0,8.138587952E0,4.421338081E0
3.122016080E-1,-2.522035122E0,8.167302132E0,4.416552544E0
3.145551500E-1,-2.502892494E0,8.139185905E0,4.421936035E0
3.169086910E-1,-2.493321180E0,8.153543472E0,4.431507587E0
3.192622330E-1,-2.489133835E0,8.153543472E0,4.441078663E0
3.216158270E-1,-2.465205431E0,8.153543472E0,4.427320004E0
3.239693680E-1,-2.450848579E0,8.149355888E0,4.441677094E0
3.263229100E-1,-2.451446772E0,8.130212784E0,4.461417675E0
3.286764520E-1,-2.422732830E0,8.102097511E0,4.471587181E0
3.310299930E-1,-2.418545485E0,8.097311974E0,4.500301361E0
3.333835350E-1,-2.423331022E0,8.073383331E0,4.529015064E0
3.357370770E-1,-2.404786825E0,8.069195747E0,4.553541660E0
3.380906180E-1,-2.423929453E0,8.069195747E0,4.586442947E0
3.404441600E-1,-2.419741869E0,8.083553314E0,4.605585575E0
3.427977020E-1,-2.410170555E0,8.088338852E0,4.605585575E0
3.451512430E-1,-2.391027927E0,8.097909927E0,4.587040901E0
3.475047850E-1,-2.353341103E0,8.084151268E0,4.592424870E0
3.498583270E-1,-2.325225353E0,8.070392609E0,4.631308079E0
3.522118680E-1,-2.291725874E0,8.070392609E0,4.607978344E0
3.545654620E-1,-2.252842426E0,8.066205025E0,4.584648132E0
3.569189520E-1,-2.218744755E0,8.056633949E0,4.546362877E0
3.592725460E-1,-2.194218397E0,8.032705307E0,4.503890514E0
3.616260870E-1,-2.173879385E0,7.989634991E0,4.451846600E0
3.639796290E-1,-2.164308071E0,7.941778183E0,4.452444553E0
3.663331710E-1,-2.182852507E0,7.917850018E0,4.447659016E0
3.686867120E-1,-2.187638044E0,7.869993687E0,4.466801643E0
3.710402540E-1,-2.167897224E0,7.855636597E0,4.462614059E0
3.733937960E-1,-2.205584288E0,7.841279984E0,4.452444553E0
3.757473370E-1,-2.239083767E0,7.869395256E0,4.427918434E0
3.781008790E-1,-2.271985054E0,7.921439171E0,4.398007870E0
3.804544210E-1,-2.329412937E0,7.972885132E0,4.344169617E0
3.828079620E-1,-2.372483730E0,8.020741463E0,4.362115860E0
3.851615040E-1,-2.410768747E0,8.081758499E0,4.337589264E0
3.875150460E-1,-2.434697151E0,8.129614830E0,4.302893162E0
3.898685870E-1,-2.490928411E0,8.166703224E0,4.263411522E0
3.922221290E-1,-2.510071039E0,8.152346611E0,4.263411522E0
3.945756710E-1,-2.529213428E0,8.181060791E0,4.258028030E0
3.969292120E-1,-2.542972326E0,8.161319733E0,4.238885403E0
3.992828060E-1,-2.523231506E0,8.137392044E0,4.229912281E0
4.016363480E-1,-2.494517565E0,8.128418922E0,4.211368084E0
4.039898890E-1,-2.489133835E0,8.090133667E0,4.187439442E0
4.063434310E-1,-2.436491728E0,8.081160545E0,4.183850288E0
4.086969730E-1,-2.393420935E0,8.033304214E0,4.150949001E0
4.110505140E-1,-2.373081923E0,7.961519241E0,4.113262177E0
4.134040560E-1,-2.338385820E0,7.904091358E0,4.076173306E0
4.157575980E-1,-2.327618122E0,7.841877937E0,4.038486481E0
4.181111390E-1,-2.303091764E0,7.789236069E0,4.000799656E0
4.204646810E-1,-2.312064886E0,7.741379261E0,3.996013880E0
4.228182230E-1,-2.282154560E0,7.727022648E0,3.939184189E0
4.251717640E-1,-2.243869543E0,7.727620602E0,3.944568157E0
4.275253060E-1,-2.200200319E0,7.674978733E0,3.897309780E0
4.298788480E-1,-2.151147604E0,7.646264553E0,3.826721668E0
4.322324410E-1,-2.098505497E0,7.594220638E0,3.832105398E0
4.345859830E-1,-2.083550215E0,7.551149845E0,3.794418573E0
4.369395250E-1,-1.997408748E0,7.503891945E0,3.767499208E0
4.392930660E-1,-1.978266120E0,7.489534855E0,3.782454491E0
4.416466080E-1,-1.944168448E0,7.465606689E0,3.754338741E0
4.440001500E-1,-1.929213285E0,7.408178806E0,3.725624800E0
4.463536910E-1,-1.914258122E0,7.336992264E0,3.745963812E0
4.487072330E-1,-1.866999865E0,7.289734364E0,3.751945972E0
4.510607750E-1,-1.842473388E0,7.223333359E0,3.766901016E0
4.534143160E-1,-1.852044702E0,7.213762283E0,3.766901016E0
4.557678580E-1,-1.828116536E0,7.185048103E0,3.762713671E0
4.581214000E-1,-1.724626899E0,7.186244488E0,3.802195072E0
4.604749410E-1,-1.616351724E0,7.187440872E0,3.856631994E0
4.628284830E-1,-1.619342685E0,7.239484787E0,3.711866140E0
4.651820250E-1,-1.633699656E0,7.286743164E0,3.716053486E0
4.675355660E-1,-1.527817249E0,7.269993305E0,3.885943890E0
4.698891080E-1,-1.383051515E0,7.367500782E0,3.964308977E0
4.722426500E-1,-1.306481123E0,7.510472298E0,3.835096598E0
4.745962430E-1,-1.264008522E0,7.616354465E0,3.791427374E0
4.769497850E-1,-1.204187989E0,7.665407181E0,3.849453449E0
4.793033270E-1,-1.091725349E0,7.771887779E0,3.898506403E0
4.816568680E-1,-9.702895880E-1,7.921439171E0,3.927818298E0
4.840104100E-1,-8.584251404E-1,8.060821533E0,3.947559118E0
4.863639520E-1,-7.962117195E-1,8.090133667E0,3.900300980E0
4.887174930E-1,-6.849454641E-1,8.154141426E0,3.997808456E0
4.910710350E-1,-6.191428304E-1,8.130811691E0,4.061218262E0
4.934245770E-1,-6.221339107E-1,8.035098076E0,4.018745422E0
4.957781180E-1,-6.364908218E-1,7.949554920E0,4.071387768E0
4.981316600E-1,-5.850451589E-1,7.788039684E0,4.212564468E0
5.004852020E-1,-6.263213158E-1,7.525427341E0,4.286143780E0
5.028387430E-1,-7.202396393E-1,7.375875950E0,4.352544308E0
5.051922850E-1,-8.350951076E-1,7.470392227E0,4.335794449E0
5.075458270E-1,-9.583254457E-1,7.712665558E0,4.179064751E0
5.098993680E-1,-1.071386337E0,7.892127514E0,4.027120590E0
5.122529100E-1,-1.133001566E0,8.024929047E0,3.943969965E0
5.146064520E-1,-1.219741344E0,8.115258217E0,3.946960926E0
5.169600460E-1,-1.248455167E0,8.157731056E0,3.932005882E0
5.193135870E-1,-1.393221021E0,8.117650986E0,3.833899975E0
5.216671290E-1,-1.506281853E0,8.097311974E0,3.813561201E0
5.240206710E-1,-1.633101463E0,8.081160545E0,3.744767427E0
5.263742120E-1,-1.680359721E0,8.075776100E0,3.728615999E0
5.287277540E-1,-1.777867198E0,8.026723862E0,3.641277790E0
5.310812960E-1,-1.917249203E0,8.000402451E0,3.476771355E0
5.334348370E-1,-2.179263115E0,7.939385414E0,3.320041418E0
5.357883790E-1,-2.443670034E0,7.893323898E0,3.249453068E0
5.381419210E-1,-2.745165825E0,7.913662910E0,3.105883837E0
5.404954620E-1,-3.055634499E0,7.933403492E0,2.952144861E0
5.428358790E-1,-3.342773199E0,7.987242222E0,2.813361168E0
5.452025460E-1,-3.711267948E0,8.078168869E0,2.659024239E0
5.475560870E-1,-4.139583111E0,8.294121742E0,2.627319336E0
5.498965560E-1,-4.437489510E0,8.852247238E0,2.810370207E0
5.522631710E-1,-4.620540619E0,9.562317848E0,2.793022156E0
5.546167640E-1,-4.707280159E0,9.817750931E0,2.415554523E0
5.569571810E-1,-4.790431023E0,9.937990189E0,1.933998942E0
5.593238480E-1,-4.871787071E0,9.988240242E0,1.634896040E0
5.616773890E-1,-4.920839787E0,9.976874352E0,1.460818172E0
5.640309310E-1,-4.960919380E0,9.885348320E0,1.341177106E0
5.663844730E-1,-5.085346222E0,9.710672379E0,1.240080357E0
5.687380140E-1,-5.243272781E0,9.531808853E0,1.157527924E0
5.710915560E-1,-5.401797295E0,9.353543282E0,1.122832060E0
5.734450980E-1,-5.642275810E0,9.212367058E0,1.091725349E0
5.757986390E-1,-5.891727448E0,9.071190834E0,1.065404296E0
5.781390560E-1,-6.132206440E0,8.916254997E0,1.096511006E0
5.805057230E-1,-6.354738712E0,8.823533058E0,1.137188911E0
5.828592640E-1,-6.525227547E0,8.773882866E0,1.173081279E0
5.851996810E-1,-6.675975323E0,8.633902550E0,1.195813060E0
5.875663480E-1,-6.722635269E0,8.556734085E0,1.234098315E0
5.899198890E-1,-6.785446644E0,8.480163574E0,1.291526079E0
5.922734310E-1,-6.767500877E0,8.419146538E0,1.406979680E0
5.946270250E-1,-6.711867332E0,8.358129501E0,1.552941918E0
5.969805660E-1,-6.600601196E0,8.360522270E0,1.717448473E0
5.993341080E-1,-6.489335060E0,8.314460754E0,1.887338877E0
6.016876500E-1,-6.326622963E0,8.355736732E0,2.071586132E0
6.040411910E-1,-6.172883987E0,8.353343964E0,2.231905222E0
6.063947330E-1,-6.014359951E0,8.384450912E0,2.392224550E0
6.087482750E-1,-5.857031822E0,8.449056625E0,2.581257343E0
6.111018160E-1,-5.698507309E0,8.489734650E0,2.723032236E0
6.134553580E-1,-5.573482037E0,8.568697929E0,2.867797852E0
6.158089000E-1,-5.423930645E0,8.623134613E0,2.970689297E0
6.181624410E-1,-5.293521881E0,8.682954788E0,3.096312523E0
6.205159830E-1,-5.191228867E0,8.703892708E0,3.179463148E0
6.228695250E-1,-5.121238708E0,8.723632812E0,3.257229805E0
6.252230660E-1,-5.079962254E0,8.734400749E0,3.339184046E0
6.275766080E-1,-5.018945694E0,8.725427628E0,3.383451223E0
6.299301500E-1,-4.953741074E0,8.717052460E0,3.431905985E0
6.322836910E-1,-4.920839787E0,8.693722725E0,3.476173162E0
6.346372330E-1,-4.920839787E0,8.674580574E0,3.504886866E0
6.369908270E-1,-4.889134884E0,8.689535141E0,3.567698479E0
6.393443680E-1,-4.879563808E0,8.689535141E0,3.558127165E0
6.416978580E-1,-4.878965378E0,8.665607452E0,3.548556089E0
6.440514520E-1,-4.864010334E0,8.660821915E0,3.486342669E0
6.464049930E-1,-4.834099770E0,8.641080856E0,3.439084291E0
6.487585350E-1,-4.827519894E0,8.635697365E0,3.329014540E0
6.511120770E-1,-4.793421745E0,8.583054543E0,3.281756163E0
6.534656180E-1,-4.725226402E0,8.573483467E0,3.172882795E0
6.558191600E-1,-4.704887390E0,8.525627136E0,3.101696253E0
6.581727020E-1,-4.618147850E0,8.497511864E0,3.035893679E0
6.605262430E-1,-4.530211449E0,8.420941353E0,2.937189817E0
6.628797850E-1,-4.447061062E0,8.397610664E0,2.823530674E0
6.652333270E-1,-4.317250252E0,8.355138779E0,2.734398127E0
6.675868680E-1,-4.173082829E0,8.336593628E0,2.621337175E0
6.699404100E-1,-4.015754700E0,8.328219414E0,2.541775942E0
6.722939520E-1,-3.838685751E0,8.319844246E0,2.438884497E0
6.746474930E-1,-3.675375462E0,8.320442200E0,2.331207514E0
6.770010350E-1,-3.527020693E0,8.307282448E0,2.237289190E0
6.793545770E-1,-3.373879910E0,8.327022552E0,2.167299032E0
6.817081180E-1,-3.212364435E0,8.337790489E0,2.121835470E0
6.840617120E-1,-3.065205812E0,8.338987350E0,2.094916344E0
6.864152540E-1,-2.941377163E0,8.330612183E0,2.063211441E0
6.887687960E-1,-2.833101988E0,8.322834969E0,2.127219439E0
6.911223370E-1,-2.720041037E0,8.314460754E0,2.172084808E0
6.934758790E-1,-2.611765862E0,8.320442200E0,2.226521492E0
6.958294210E-1,-2.532204628E0,8.321639061E0,2.261217356E0
6.981829620E-1,-2.467598438E0,8.356334686E0,2.377269268E0
7.005365040E-1,-2.402992249E0,8.362317085E0,2.468794823E0
7.028900460E-1,-2.385644197E0,8.405985832E0,2.545963287E0
7.052435870E-1,-2.364706993E0,8.487939835E0,2.665604353E0
7.075971290E-1,-2.377269268E0,8.574680328E0,2.799004316E0
7.099506710E-1,-2.422134638E0,8.666205406E0,2.865405083E0
7.123042120E-1,-2.486142635E0,8.771489143E0,2.968894720E0
7.146577540E-1,-2.620738983E0,8.875576973E0,3.028715372E0
7.170112960E-1,-2.746362209E0,8.984451294E0,3.098107100E0
7.193648370E-1,-2.927618504E0,9.059824944E0,3.118446112E0
7.217183790E-1,-3.123231649E0,9.148359299E0,3.139383316E0
7.240719730E-1,-3.350549936E0,9.199206352E0,3.130410194E0
7.264255140E-1,-3.569493294E0,9.239884377E0,3.093321562E0
7.287790560E-1,-3.791427374E0,9.265607834E0,3.028116941E0
7.311325980E-1,-4.003790379E0,9.268000603E0,2.991028309E0
7.334861390E-1,-4.215555191E0,9.256035805E0,2.897109985E0
7.358396810E-1,-4.408177376E0,9.244071960E0,2.803191662E0
7.381932230E-1,-4.578666210E0,9.256634712E0,2.743371248E0
7.405467640E-1,-4.738387108E0,9.240483284E0,2.683550596E0
7.429003060E-1,-4.869394302E0,9.224330902E0,2.594418049E0
7.452538480E-1,-4.986642361E0,9.255437851E0,2.468196630E0
7.476073890E-1,-5.099104881E0,9.287142754E0,2.370090723E0
7.499609310E-1,-5.154139996E0,9.281759262E0,2.283350945E0
7.523144730E-1,-5.238486767E0,9.318249702E0,2.181057930E0
7.546680140E-1,-5.308476925E0,9.355338097E0,2.093719721E0
7.570215560E-1,-5.330610752E0,9.354740143E0,2.016551256E0
7.593750980E-1,-5.347958565E0,9.382257462E0,1.881955028E0
7.617286390E-1,-5.356333256E0,9.415159225E0,1.790429592E0
7.640821810E-1,-5.313262463E0,9.434301376E0,1.742573142E0
7.664357230E-1,-5.298307419E0,9.434301376E0,1.690529227E0
7.687892640E-1,-5.221737385E0,9.415757179E0,1.663011789E0
7.711428580E-1,-5.145765305E0,9.397212982E0,1.654636860E0
7.734964000E-1,-5.060221672E0,9.374481201E0,1.665404558E0
7.758499410E-1,-4.961517811E0,9.380462646E0,1.714457393E0
7.782034830E-1,-4.853242397E0,9.348159790E0,1.764706731E0
7.805570250E-1,-4.744967461E0,9.363713264E0,1.828116536E0
7.829105660E-1,-4.684548378E0,9.364909172E0,1.905883193E0
7.852641080E-1,-4.619942188E0,9.380462646E0,1.974078655E0
7.876176500E-1,-4.582853794E0,9.404989243E0,2.031506538E0
7.899711910E-1,-4.532604218E0,9.420542717E0,2.147558212E0
7.923247330E-1,-4.519443989E0,9.454640388E0,2.195414782E0
7.946782750E-1,-4.515854359E0,9.483354568E0,2.257628202E0
7.970318160E-1,-4.512863636E0,9.503094673E0,2.362912416E0
7.993853580E-1,-4.529613495E0,9.513264656E0,2.472982168E0
8.017389000E-1,-4.564309120E0,9.504291534E0,2.568096876E0
8.040924410E-1,-4.603192329E0,9.504291534E0,2.664407969E0
8.064459830E-1,-4.633700848E0,9.523433685E0,2.764308453E0
8.087995250E-1,-4.701896667E0,9.528220177E0,2.859423161E0
8.111530660E-1,-4.774279594E0,9.533005714E0,2.949153900E0
8.135066080E-1,-4.860421181E0,9.527621269E0,3.024527788E0
8.158602020E-1,-4.979464054E0,9.536594391E0,3.032304525E0
8.182137430E-1,-5.050052166E0,9.531210899E0,3.036491871E0
8.205672850E-1,-5.187041283E0,9.529416084E0,2.981456995E0
8.229208270E-1,-5.299503803E0,9.527621269E0,2.912663460E0
8.252743680E-1,-5.434698582E0,9.501898766E0,2.796013355E0
8.276279100E-1,-5.532206059E0,9.438488960E0,2.699103832E0
8.299814520E-1,-5.633901119E0,9.388837814E0,2.582453728E0
8.323349930E-1,-5.693721294E0,9.311071396E0,2.471785784E0
8.346885350E-1,-5.746961594E0,9.223732948E0,2.322832584E0
8.370420770E-1,-5.782256126E0,9.126823425E0,2.212762833E0
8.393956180E-1,-5.803193092E0,9.030512810E0,2.098505497E0
8.417491600E-1,-5.762515068E0,8.915657043E0,1.989632010E0
8.441027020E-1,-5.740979671E0,8.814560890E0,1.894517303E0
8.464562430E-1,-5.696712494E0,8.757730484E0,1.833500385E0
8.488097850E-1,-5.633302689E0,8.700303078E0,1.786840320E0
8.511633270E-1,-5.603392601E0,8.652446747E0,1.739582062E0
8.535168680E-1,-5.526223660E0,8.623732567E0,1.668993831E0
8.558704100E-1,-5.459823132E0,8.633902550E0,1.640878081E0
8.582240040E-1,-5.407180786E0,8.644071579E0,1.617548108E0
8.605775460E-1,-5.355136871E0,8.624929428E0,1.613958836E0
8.629310870E-1,-5.260022163E0,8.669196129E0,1.595414519E0
8.652846290E-1,-5.222933769E0,8.693722725E0,1.634297848E0
8.676381710E-1,-5.166702271E0,8.708678246E0,1.649253011E0
8.699917120E-1,-5.120042324E0,8.742775917E0,1.673779488E0
8.723452540E-1,-5.044668198E0,8.800801277E0,1.669592023E0
8.746987960E-1,-4.980062008E0,8.840283394E0,1.737787485E0
8.770523370E-1,-4.909473896E0,8.879166603E0,1.767099500E0
8.794058790E-1,-4.820939541E0,8.899505615E0,1.820937991E0
8.817594210E-1,-4.736592293E0,8.938986778E0,1.860419631E0
8.841129620E-1,-4.685744762E0,8.982656479E0,1.899302959E0
8.864665040E-1,-4.605585575E0,9.021539688E0,1.928615093E0
8.888200460E-1,-4.526622295E0,9.041878700E0,1.996810555E0
8.911735870E-1,-4.456034184E0,9.081359863E0,2.035693884E0
8.935271290E-1,-4.395017147E0,9.105886459E0,2.079961061E0
8.958806710E-1,-4.343571186E0,9.106484413E0,2.114058733E0
8.982342120E-1,-4.283152580E0,9.117252350E0,2.167897224E0
9.005877540E-1,-4.213162422E0,9.113663673E0,2.264806747E0
9.029412960E-1,-4.157529354E0,9.110074043E0,2.341975212E0
9.052948370E-1,-4.096512318E0,9.086744308E0,2.395813704E0
9.076484310E-1,-4.031308174E0,9.068798065E0,2.449652195E0
9.100019730E-1,-3.975076675E0,9.046066284E0,2.513062000E0
9.123555140E-1,-3.904488325E0,9.013164520E0,2.547757864E0
9.147090560E-1,-3.823132277E0,8.980263710E0,2.525624275E0
9.170625980E-1,-3.794418573E0,8.971290588E0,2.535195589E0
9.194161390E-1,-3.746562004E0,8.947361946E0,2.507678032E0
9.217696810E-1,-3.702893019E0,8.928219795E0,2.446063042E0
9.241232230E-1,-3.644867182E0,8.924032211E0,2.370090723E0
9.264767640E-1,-3.610171080E0,8.923434258E0,2.279761791E0
9.288303060E-1,-3.580260992E0,8.928219795E0,2.193620205E0
9.311838480E-1,-3.554538012E0,8.870193481E0,2.108076811E0
9.335373890E-1,-3.510869026E0,8.866005898E0,2.041675806E0
9.358909310E-1,-3.495315790E0,8.836693764E0,1.975275040E0
9.382444730E-1,-3.446861029E0,8.817551613E0,1.918445587E0
9.405980140E-1,-3.427120209E0,8.788837433E0,1.884945989E0
9.429515560E-1,-3.416950703E0,8.774480820E0,1.852044702E0
9.453050980E-1,-3.397808075E0,8.765507698E0,1.842473388E0
9.476586390E-1,-3.363112211E0,8.779864311E0,1.800000787E0
9.500122330E-1,-3.349353552E0,8.784649849E0,1.800000787E0
9.523657750E-1,-3.330210924E0,8.784649849E0,1.795813441E0
9.547193160E-1,-3.315854073E0,8.803792953E0,1.795813441E0
9.570728580E-1,-3.278765202E0,8.799605370E0,1.829911113E0
9.594264000E-1,-3.250649452E0,8.781061172E0,1.854437590E0
9.617799410E-1,-3.231507063E0,8.757132530E0,1.864607096E0
9.641334830E-1,-3.208176851E0,8.757730484E0,1.893320918E0
9.664870250E-1,-3.189632654E0,8.748757362E0,1.913061738E0
9.688405660E-1,-3.175275564E0,8.734400749E0,1.922633052E0
9.711941080E-1,-3.171088219E0,8.720044136E0,1.961516380E0
9.735476500E-1,-3.171088219E0,8.701499939E0,1.975873351E0
9.759011910E-1,-3.170490026E0,8.691329956E0,1.951945066E0
9.782547330E-1,-3.184248686E0,8.662615776E0,1.928016901E0
9.806082750E-1,-3.230310678E0,8.627920151E0,1.879562140E0
9.829618160E-1,-3.252444267E0,8.603393555E0,1.793420553E0
9.853153580E-1,-3.283550978E0,8.530412674E0,1.701895118E0
9.876689000E-1,-3.309871912E0,8.505886078E0,1.596610904E0
9.900224410E-1,-3.322434187E0,8.467002869E0,1.510469317E0
9.923760350E-1,-3.314657450E0,8.389834404E0,1.390229940E0
9.947295770E-1,-3.312862873E0,8.341380119E0,1.285543919E0
9.970831180E-1,-3.372683525E0,8.330612183E0,1.179063320E0
9.994366600E-1,-3.399004459E0,8.300702095E0,1.020538807E0
1.001790202E0,-3.406183004E0,8.242675781E0,9.104689956E-1
1.004143743E0,-3.399004459E0,8.175078392E0,8.201399446E-1
1.006497285E0,-3.367897987E0,8.132007599E0,7.010970116E-1
1.008850827E0,-3.370290756E0,8.078767776E0,5.862415433E-1
1.011204368E0,-3.353540897E0,8.006384850E0,4.911268353E-1
1.013557910E0,-3.314059258E0,7.948956966E0,4.205385745E-1
1.015911452E0,-3.264408350E0,7.886743546E0,3.343969584E-1
1.018264993E0,-3.196212769E0,7.810771465E0,2.739782035E-1
1.020618535E0,-3.104687452E0,7.730013371E0,2.135594189E-1
1.022972077E0,-3.012563705E0,7.682755470E0,1.333998591E-1
1.025325618E0,-2.897708178E0,7.625925541E0,9.272187948E-2
1.027679160E0,-2.768495798E0,7.584051132E0,4.666004330E-2
1.030032702E0,-2.635694027E0,7.603792191E0,5.982056609E-4
1.032386243E0,-2.474178553E0,7.619943619E0,-2.093719877E-2
1.034739785E0,-2.374876499E0,7.663612843E0,-3.469592705E-2
1.037093327E0,-2.261217356E0,7.722237110E0,-3.349951655E-2
1.039446868E0,-2.187039852E0,7.808976650E0,-8.973085321E-3
1.041800410E0,-2.103291035E0,7.925028801E0,3.469592705E-2
1.044154004E0,-2.034497499E0,8.050053596E0,7.776673883E-2
1.046507546E0,-1.984248161E0,8.175078392E0,1.304088384E-1
1.048861087E0,-1.944168448E0,8.290532112E0,2.117647976E-1
1.051214629E0,-1.932802439E0,8.439485550E0,3.020938635E-1
1.053568171E0,-1.929811478E0,8.563912392E0,3.248256743E-1
1.055921712E0,-1.947159410E0,8.689535141E0,4.396811724E-1
1.058275254E0,-1.978864312E0,8.842676163E0,5.437689424E-1
1.060628796E0,-2.000399828E0,8.971888542E0,6.334998012E-1
1.062982337E0,-2.036292076E0,9.101100922E0,7.088736892E-1
1.065335879E0,-2.066800594E0,9.235098839E0,7.788637877E-1
1.067689421E0,-2.082952023E0,9.302098274E0,8.404789567E-1
1.070042962E0,-2.127219439E0,9.402596474E0,8.871390224E-1
1.072396504E0,-2.138585329E0,9.493523598E0,9.439685345E-1
1.074750046E0,-2.158325911E0,9.527023315E0,9.720842242E-1
1.077103587E0,-2.169093609E0,9.608379364E0,1.009771109E0
1.079457129E0,-2.203191519E0,9.631709099E0,1.023529887E0
1.081810671E0,-2.199003935E0,9.698708534E0,1.022931695E0
1.084164212E0,-2.185245275E0,9.718449593E0,1.042672515E0
1.086517754E0,-2.213959217E0,9.760921478E0,1.027119160E0
1.088871348E0,-2.209771633E0,9.814162254E0,1.027119160E0
1.091224889E0,-2.210968018E0,9.876375198E0,1.050449133E0
1.093578431E0,-2.264208317E0,9.947562218E0,1.077966571E0
1.095931973E0,-2.317448616E0,1.001874828E1,1.067198873E0
1.098285514E0,-2.375474691E0,1.009472084E1,1.089930773E0
1.100639056E0,-2.466402054E0,1.011805058E1,1.150349498E0
1.102992598E0,-2.528615236E0,1.014616585E1,1.153938770E0
1.105346139E0,-2.618944407E0,1.018863869E1,1.147956610E0
1.107699681E0,-2.708076954E0,1.018744278E1,1.117448211E0
1.110053223E0,-2.773879766E0,1.016231823E1,1.064207911E0
1.112406764E0,-2.843869686E0,1.013300610E1,1.029511929E0
1.114760306E0,-2.865405083E0,1.008933640E1,9.290133715E-1
1.117113848E0,-2.901297569E0,1.003071213E1,8.380861282E-1
1.119467389E0,-2.927618504E0,9.991828918E0,7.274180651E-1
1.121820931E0,-2.944368362E0,9.919445992E0,6.269195080E-1
1.124174473E0,-2.927618504E0,9.885348320E0,5.030909777E-1
1.126528014E0,-2.929413080E0,9.817750931E0,3.589234054E-1
1.128881556E0,-2.907877684E0,9.769296646E0,2.350948304E-1
1.131235098E0,-2.877967358E0,9.720243454E0,1.495514214E-1
1.133588639E0,-2.842075109E0,9.686744690E0,1.615155302E-2
1.135942181E0,-2.812164783E0,9.667003632E0,-6.999006122E-2
1.138295775E0,-2.776870728E0,9.633503914E0,-1.651047617E-1
1.140649316E0,-2.746960402E0,9.609575272E0,-2.506481707E-1
1.143002858E0,-2.712862730E0,9.571290970E0,-3.026920557E-1
1.145356400E0,-2.706282377E0,9.546764374E0,-3.888336718E-1
1.147709941E0,-2.685943365E0,9.532406807E0,-4.600201547E-1
1.150063483E0,-2.670390129E0,9.503094673E0,-5.413761139E-1
1.152417025E0,-2.665006161E0,9.507881165E0,-5.653043389E-1
1.154770566E0,-2.663809776E0,9.478569031E0,-6.370890141E-1
1.157124108E0,-2.677568436E0,9.468997002E0,-6.610172391E-1
1.159477650E0,-2.685943365E0,9.458827972E0,-7.040880919E-1
1.161831191E0,-2.704487801E0,9.444471359E0,-7.286145091E-1
1.164184733E0,-2.742773056E0,9.439086914E0,-7.142575383E-1
1.166538275E0,-2.752344131E0,9.434301376E0,-7.148557901E-1
1.168891816E0,-2.781058073E0,9.429515839E0,-6.909275651E-1
1.171245358E0,-2.819343328E0,9.448657990E0,-6.580262184E-1
1.173598900E0,-2.848655462E0,9.486943245E0,-6.155536175E-1
1.175952441E0,-2.868994236E0,9.525228500E0,-5.587241054E-1
1.178305983E0,-2.907877684E0,9.534201622E0,-5.210371017E-1
1.180659525E0,-2.951546669E0,9.577272415E0,-4.833501875E-1
1.183013066E0,-2.976671457E0,9.629914284E0,-4.169493318E-1
1.185366660E0,-2.987439156E0,9.687342644E0,-3.601198196E-1
1.187720150E0,-2.983849764E0,9.750154495E0,-3.511467278E-1
1.190073743E0,-3.003590584E0,9.812367439E0,-3.230310678E-1
1.192427285E0,-2.986242771E0,9.865608215E0,-2.656033039E-1
1.194780827E0,-3.006581545E0,9.923035622E0,-2.279163599E-1
1.197134368E0,-3.002992392E0,9.985248566E0,-1.950150430E-1
1.199487910E0,-3.013760090E0,1.003789139E1,-1.519442350E-1
1.201841452E0,-3.023929596E0,1.006660461E1,-1.286142170E-1
1.204194993E0,-3.010769129E0,1.011984539E1,-9.511470050E-2
1.206548535E0,-2.987439156E0,1.014377308E1,-9.511470050E-2
1.208902077E0,-2.964108944E0,1.017787075E1,-8.554340899E-2
1.211255618E0,-2.912065268E0,1.021137047E1,-8.015955985E-2
1.213609160E0,-2.884547710E0,1.025025368E1,-5.563312769E-2
1.215962702E0,-2.856431961E0,1.027418232E1,-5.084748194E-2
1.218316243E0,-2.795415163E0,1.028495026E1,-4.067798331E-2
1.220669785E0,-2.786442041E0,1.029930687E1,-2.153540403E-2
1.223023327E0,-2.733799934E0,1.032323551E1,-4.007977992E-2
1.225376868E0,-2.748754978E0,1.037109184E1,-3.110669367E-2
1.227730410E0,-2.724826813E0,1.040937710E1,-8.374879509E-2
1.230083952E0,-2.715853691E0,1.043330479E1,-5.982056633E-2
1.232437546E0,-2.696711063E0,1.046201897E1,-8.853443712E-2
1.234791087E0,-2.715853691E0,1.051466084E1,-1.082752272E-1
1.237144629E0,-2.758326292E0,1.056610680E1,-1.764706671E-1
1.239498171E0,-2.776870728E0,1.061815071E1,-2.105683982E-1
1.241851712E0,-2.833700180E0,1.065583706E1,-2.596212626E-1
1.244205254E0,-2.898904562E0,1.068335533E1,-3.278166950E-1
1.246558796E0,-2.974278450E0,1.069711399E1,-3.529413342E-1
1.248912337E0,-3.035893679E0,1.072463131E1,-3.972085714E-1
1.251265879E0,-3.105883837E0,1.074736309E1,-4.654040039E-1
1.253619421E0,-3.199802160E0,1.075095177E1,-5.389832854E-1
1.255972962E0,-3.288934708E0,1.076411247E1,-5.976074338E-1
1.258326504E0,-3.369094372E0,1.077727318E1,-6.227321029E-1
1.260680046E0,-3.491726398E0,1.077129078E1,-6.969096065E-1
1.263033587E0,-3.594617844E0,1.075513935E1,-7.848458290E-1
1.265387129E0,-3.697509289E0,1.076770210E1,-8.823533654E-1
1.267740671E0,-3.780659676E0,1.074257755E1,-9.744769931E-1
1.270094212E0,-3.864408493E0,1.072702408E1,-1.076171994E0
1.272447754E0,-3.957130432E0,1.068275642E1,-1.153938770E0
1.274801296E0,-4.045664787E0,1.064267731E1,-1.255633712E0
1.277154837E0,-4.086342812E0,1.060857964E1,-1.347159147E0
1.279508379E0,-4.174279213E0,1.054516983E1,-1.434497118E0
1.281861921E0,-4.234697819E0,1.050568771E1,-1.497308731E0
1.284215462E0,-4.289732933E0,1.042851925E1,-1.550549030E0
1.286569056E0,-4.330410957E0,1.035135078E1,-1.603191137E0
1.288922598E0,-4.352544308E0,1.027418232E1,-1.660618901E0
1.291276139E0,-4.388436794E0,1.018265629E1,-1.732403636E0
1.293629681E0,-4.401597023E0,1.011565781E1,-1.755733609E0
1.295983223E0,-4.409972191E0,1.005284595E1,-1.789233088E0
1.298336764E0,-4.423730850E0,1.000498962E1,-1.798804402E0
1.300690306E0,-4.446462631E0,9.961320877E0,-1.822732687E0
1.303043848E0,-4.451248169E0,9.928419113E0,-1.788634896E0
1.305397389E0,-4.465605259E0,9.914062500E0,-1.759921074E0
1.307750931E0,-4.494917393E0,9.918848038E0,-1.731805444E0
1.310104473E0,-4.528416634E0,9.908679008E0,-1.713261008E0
1.312458014E0,-4.576871395E0,9.923035622E0,-1.689931035E0
1.314811556E0,-4.648057938E0,9.950552940E0,-1.695913076E0
1.317165098E0,-4.738387108E0,9.964311600E0,-1.682752490E0
1.319518639E0,-4.819144726E0,9.958928108E0,-1.655235052E0
1.321872181E0,-4.899304390E0,9.943972588E0,-1.661217093E0
1.324225723E0,-5.003392220E0,9.909276962E0,-1.671984792E0
1.326579264E0,-5.073980331E0,9.889535904E0,-1.686939955E0
1.328932806E0,-5.134997368E0,9.841081619E0,-1.677966833E0
1.331286348E0,-5.192425251E0,9.798010826E0,-1.640279889E0
1.333639889E0,-5.234897614E0,9.729815483E0,-1.606780410E0
1.335993483E0,-5.277370453E0,9.658030510E0,-1.558923960E0
1.338346973E0,-5.305486202E0,9.582057953E0,-1.511067510E0
1.340700566E0,-5.315057278E0,9.505488396E0,-1.476969719E0
1.343054108E0,-5.290530682E0,9.443872452E0,-1.471585870E0
1.345407650E0,-5.290530682E0,9.405587196E0,-1.442273855E0
1.347761191E0,-5.242674351E0,9.377471924E0,-1.465603828E0
1.350114733E0,-5.209175110E0,9.353543282E0,-1.484148264E0
1.352468275E0,-5.146961689E0,9.325428009E0,-1.502094388E0
1.354821816E0,-5.108078003E0,9.320642471E0,-1.534995675E0
1.357175358E0,-5.031507969E0,9.321240425E0,-1.581655741E0
1.359528900E0,-4.978267670E0,9.278169632E0,-1.643270969E0
1.361882441E0,-4.920241356E0,9.245268822E0,-1.709073544E0
1.364235983E0,-4.867001057E0,9.226125717E0,-1.737189293E0
1.366589525E0,-4.813760757E0,9.159725189E0,-1.764706731E0
1.368943066E0,-4.737788677E0,9.126823425E0,-1.762912035E0
1.371296608E0,-4.671388149E0,9.056235313E0,-1.737787485E0
1.373650150E0,-4.624129772E0,9.008976936E0,-1.688734531E0
1.376003691E0,-4.548755646E0,8.947959900E0,-1.605584025E0
1.378357233E0,-4.454837322E0,8.892327309E0,-1.503290772E0
1.380710775E0,-4.371088982E0,8.841479301E0,-1.377069473E0
1.383064316E0,-4.268795490E0,8.838488579E0,-1.246062398E0
1.385417910E0,-4.161716938E0,8.835497856E0,-1.115055323E0
1.387771452E0,-4.050450325E0,8.842078209E0,-9.649057388E-1
1.390124993E0,-3.924827337E0,8.848658562E0,-8.237292171E-1
1.392478535E0,-3.799204111E0,8.879764557E0,-6.921239495E-1
1.394832077E0,-3.678366661E0,8.934201241E0,-5.850451589E-1
1.397185618E0,-3.576073408E0,8.988039970E0,-5.120640397E-1
1.399539160E0,-3.439682484E0,9.013762474E0,-4.576273263E-1
1.401892702E0,-3.315854073E0,9.038887978E0,-4.612165689E-1
1.404246243E0,-3.212364435E0,9.068199158E0,-4.402793646E-1
1.406599785E0,-3.102892876E0,9.074181557E0,-4.534398913E-1
1.408953327E0,-2.983849764E0,9.041878700E0,-4.899304509E-1
1.411306868E0,-2.879163742E0,9.018548965E0,-5.120640397E-1
1.413660410E0,-2.760120869E0,8.986245155E0,-5.150550604E-1
1.416013952E0,-2.650051117E0,8.920442581E0,-5.270192027E-1
1.418367493E0,-2.545963287E0,8.859425545E0,-4.965106845E-1
1.420721035E0,-2.442473650E0,8.855836868E0,-4.277170599E-1
1.423074577E0,-2.343769789E0,8.852247238E0,-3.828516304E-1
1.425428118E0,-2.249253273E0,8.858229637E0,-3.290131092E-1
1.427781660E0,-2.113460541E0,8.879166603E0,-2.458625287E-1
1.430135202E0,-2.015354872E0,8.904889107E0,-1.674975902E-1
1.432488743E0,-1.865803480E0,8.935398102E0,-6.520441920E-2
1.434842337E0,-1.715653777E0,8.985049248E0,-5.982056726E-3
1.437195879E0,-1.551745534E0,9.020941734E0,8.733802289E-2
1.439549421E0,-1.387238979E0,9.051449776E0,1.567298770E-1
1.441902962E0,-1.204187989E0,9.096315384E0,2.261217386E-1
1.444256504E0,-1.061815023E0,9.107681274E0,2.715853751E-1
1.446610046E0,-9.068797827E-1,9.133403778E0,3.451646566E-1
1.448963587E0,-7.471588850E-1,9.173483849E0,3.768695593E-1
1.451317129E0,-6.059823632E-1,9.227920532E0,4.073780477E-1
1.453670671E0,-4.929214716E-1,9.285946846E0,4.133601189E-1
1.456024212E0,-4.085744619E-1,9.334999084E0,4.331009090E-1
1.458377754E0,-3.469592929E-1,9.388239861E0,4.145565331E-1
1.460731296E0,-2.949153781E-1,9.440881729E0,3.720839322E-1
1.463084837E0,-2.518445849E-1,9.493523598E0,3.140579760E-1
1.465438379E0,-2.368894368E-1,9.531210899E0,2.368894368E-1
1.467791921E0,-2.081755698E-1,9.583852768E0,2.033899277E-1
1.470145462E0,-1.896311939E-1,9.612566948E0,2.039881349E-1
1.472499004E0,-1.525424421E-1,9.675378799E0,2.039881349E-1
1.474852546E0,-1.190429255E-1,9.718449593E0,1.752742529E-1
1.477206087E0,-8.075776696E-2,9.781260490E0,1.082752272E-1
1.479559629E0,-2.811566554E-2,9.881759644E0,2.213360928E-2
1.481913171E0,2.512463741E-2,9.996016502E0,-1.028913707E-1
1.484266712E0,6.819544733E-2,1.012941647E1,-2.039881349E-1
1.486620306E0,1.429711580E-1,1.027358437E1,-2.231307179E-1
1.488973796E0,1.902294010E-1,1.045663452E1,-5.563312769E-2
1.491327389E0,2.440679073E-1,1.069830990E1,2.691925466E-1
1.493680931E0,3.002992272E-1,1.097468090E1,7.292127013E-1
1.496034473E0,3.110669553E-1,1.129831028E1,1.326221943E0
1.498388014E0,3.541377485E-1,1.162792206E1,2.000998020E0
1.500741556E0,3.822534084E-1,1.194796181E1,2.709273338E0
1.503081973E0,3.960121572E-1,1.224467182E1,3.426522017E0
1.505448639E0,3.768695593E-1,1.253599739E1,4.158725739E0
1.507802181E0,3.427718580E-1,1.280758286E1,4.923830986E0
1.510142598E0,2.757728100E-1,1.301755333E1,5.727221012E0
1.512509264E0,1.603191197E-1,1.328973675E1,6.558128834E0
1.514862806E0,3.589234129E-2,1.352782249E1,7.384849072E0
1.517203223E0,-8.614161611E-2,1.374556923E1,8.014161110E0
1.519569889E0,-1.465603858E-1,1.389571953E1,8.444869041E0
1.521923431E0,-1.040877849E-1,1.399322701E1,8.679366112E0
1.524263848E0,-7.776673418E-3,1.401296806E1,8.637491226E0
1.526630514E0,1.908276081E-1,1.396092415E1,8.382058144E0
1.528984056E0,4.414757788E-1,1.381675625E1,7.916055679E0
1.531337598E0,7.328019142E-1,1.359661674E1,7.332206726E0
1.533691139E0,1.036092162E0,1.331306744E1,6.594619274E0
1.536044733E0,1.325623751E0,1.303310680E1,5.876173973E0
1.538398275E0,1.544566989E0,1.271545982E1,5.152943611E0
1.540751816E0,1.681556106E0,1.237807178E1,4.480560303E0
1.543105358E0,1.756331801E0,1.203111267E1,3.879961967E0
1.545445775E0,1.745564103E0,1.168774223E1,3.311068296E0
1.547812441E0,1.652244091E0,1.133480072E1,2.852244616E0
1.550165983E0,1.510469317E0,1.096810055E1,2.468794823E0
1.552506400E0,1.314257860E0,1.066720295E1,2.156531334E0
1.554873066E0,1.079761267E0,1.038126087E1,1.866999865E0
1.557226608E0,8.446664214E-1,1.012881851E1,1.616351724E0
1.559567025E0,6.131607890E-1,9.929615974E0,1.407577872E0
1.561933691E0,3.583251834E-1,9.772886276E0,1.165304661E0
1.564287233E0,1.304088384E-1,9.649057388E0,9.613165259E-1
1.566627650E0,-6.999006122E-2,9.631709099E0,7.334001660E-1
1.568994316E0,-2.662015259E-1,9.619147301E0,5.389832854E-1
1.571347858E0,-4.384847581E-1,9.611370087E0,3.631108403E-1
1.573688327E0,-5.922235847E-1,9.647262573E0,1.926222295E-1
1.576054941E0,-7.423732281E-1,9.673583984E0,7.058826834E-2
1.578408483E0,-8.494520187E-1,9.710074425E0,-7.537391037E-2
1.580748952E0,-9.463613629E-1,9.755537987E0,-2.638086975E-1
1.583115618E0,-1.091127157E0,9.757930756E0,-4.193421602E-1
1.585469160E0,-1.198205948E0,9.780662537E0,-5.700899959E-1
1.587809577E0,-1.304686546E0,9.769296646E0,-7.196413875E-1
1.590176243E0,-1.406979680E0,9.752547264E0,-8.368897438E-1
1.592529785E0,-1.509871125E0,9.722636223E0,-9.098708034E-1
1.594883327E0,-1.617548108E0,9.663414001E0,-9.595218897E-1
1.597236868E0,-1.698305845E0,9.625128746E0,-9.074779749E-1
1.599590410E0,-1.784447432E0,9.567103386E0,-8.315058947E-1
1.601943952E0,-1.861017823E0,9.500103951E0,-7.262216806E-1
1.604297493E0,-1.866401672E0,9.414560318E0,-6.245267391E-1
1.606651035E0,-1.815554142E0,9.325428009E0,-5.084748268E-1
1.609004577E0,-1.764108539E0,9.282955170E0,-4.211367965E-1
1.611358118E0,-1.627119422E0,9.227322578E0,-3.565305769E-1
1.613711660E0,-1.490130305E0,9.171689034E0,-2.913261652E-1
1.616065202E0,-1.372882009E0,9.130413055E0,-1.986042857E-1
1.618418743E0,-1.222134113E0,9.070592880E0,-9.511470050E-2
1.620772285E0,-1.080359459E0,9.048459053E0,-1.615155302E-2
1.623125827E0,-9.631111026E-1,9.016754150E0,8.195417374E-2
1.625479368E0,-8.219345808E-1,8.999405861E0,1.316052526E-1
1.627832910E0,-6.658028960E-1,8.962915421E0,1.920240223E-1
1.630186452E0,-4.869394004E-1,8.955737114E0,2.470589429E-1
1.632540046E0,-3.547359705E-1,8.942576408E0,2.925225794E-1
1.634893587E0,-2.045863420E-1,8.935398102E0,3.960121572E-1
1.637247129E0,-3.529413417E-2,8.927620888E0,4.989035130E-1
1.639600671E0,7.238288224E-2,8.901300430E0,6.305087805E-1
1.641954212E0,1.561316848E-1,8.888139725E0,7.417750359E-1
1.644307754E0,2.638086975E-1,8.894122124E0,7.914260626E-1
1.646661296E0,3.367897868E-1,8.895915985E0,9.744769931E-1
1.649014837E0,3.774677813E-1,8.911469460E0,1.100100160E0
1.651368379E0,4.325026870E-1,8.917451859E0,1.191625714E0
1.653721921E0,4.827519655E-1,8.952147484E0,1.321436286E0
1.656075462E0,5.371887088E-1,8.953344345E0,1.456630826E0
1.658429004E0,5.784648657E-1,8.944969177E0,1.530210137E0
1.660782546E0,5.970092416E-1,8.940781593E0,1.587637782E0
1.663136087E0,6.586244106E-1,8.955737114E0,1.584048629E0
1.665489629E0,6.759724021E-1,8.927620888E0,1.699502230E0
1.667843171E0,7.322037220E-1,8.952147484E0,1.714457393E0
1.670196712E0,8.033902049E-1,8.919246674E0,1.715653777E0
1.672550254E0,8.458628058E-1,8.919844627E0,1.740180254E0
1.674903796E0,8.787640929E-1,8.901300430E0,1.750349760E0
1.677257337E0,9.170492887E-1,8.887541771E0,1.760519266E0
1.679610931E0,9.349954724E-1,8.897112846E0,1.789831281E0
1.681964421E0,9.493523836E-1,8.916853905E0,1.789831281E0
1.684318014E0,9.535398483E-1,8.935996056E0,1.823330879E0
1.686671556E0,9.433703423E-1,8.955139160E0,1.851446509E0
1.689025098E0,9.038887620E-1,9.002995491E0,1.913061738E0
1.691378639E0,8.883354068E-1,9.041280746E0,1.965105653E0
1.693732181E0,8.297112584E-1,9.074779510E0,2.041077614E0
1.696085723E0,7.998009920E-1,9.117850304E0,2.107478619E0
1.698439264E0,7.471588850E-1,9.136993408E0,2.154138565E0
1.700792806E0,7.028916478E-1,9.184251785E0,2.191825628E0
1.703146348E0,6.167500615E-1,9.193224907E0,2.257628202E0
1.705499889E0,5.635097623E-1,9.231510162E0,2.294716835E0
1.707853431E0,4.881358147E-1,9.226125717E0,2.288734913E0
1.710206973E0,3.786641955E-1,9.234500885E0,2.306680918E0
1.712560514E0,2.937189937E-1,9.247661591E0,2.276172638E0
1.714914056E0,1.896311939E-1,9.217751503E0,2.265404940E0
1.717267598E0,6.759724021E-2,9.173483849E0,2.225923300E0
1.719621139E0,-4.067798331E-2,9.143573761E0,2.166700840E0
1.721974681E0,-1.381855011E-1,9.113663673E0,2.079362869E0
1.724328223E0,-2.213360965E-1,9.026325226E0,1.997408748E0
1.726681764E0,-3.098705411E-1,8.972486496E0,1.938784599E0
1.729035306E0,-3.870390654E-1,8.884550095E0,1.789831281E0
1.731388848E0,-4.564309120E-1,8.807381630E0,1.736590981E0
1.733742389E0,-4.683950245E-1,8.734400749E0,1.616949916E0
1.736095931E0,-5.096712112E-1,8.657232285E0,1.578664780E0
1.738449525E0,-5.784648657E-1,8.560322762E0,1.501496196E0
1.740803066E0,-6.239284873E-1,8.511270523E0,1.433300734E0
1.743156608E0,-6.652047038E-1,8.438887596E0,1.366301775E0
1.745510150E0,-7.304090858E-1,8.404789925E0,1.313061476E0
1.747863691E0,-7.770691514E-1,8.365905762E0,1.288534999E0
1.750217233E0,-8.183453679E-1,8.350951195E0,1.244866014E0
1.752570775E0,-8.614161611E-1,8.340781212E0,1.253839016E0
1.754924316E0,-9.044869542E-1,8.364709854E0,1.262812138E0
1.757277858E0,-9.332008362E-1,8.359326363E0,1.286142230E0
1.759631400E0,-9.433703423E-1,8.364709854E0,1.338784218E0
1.761984941E0,-9.200403094E-1,8.388637543E0,1.348355532E0
1.764338483E0,-9.158528447E-1,8.388637543E0,1.372882009E0
1.766692025E0,-8.733802438E-1,8.422736168E0,1.377667665E0
1.769045566E0,-8.123632669E-1,8.437690735E0,1.378265858E0
1.771399108E0,-7.555337548E-1,8.481359482E0,1.364507079E0
1.773752650E0,-6.370890141E-1,8.501698494E0,1.371087432E0
1.776106191E0,-5.617151260E-1,8.526225090E0,1.362114310E0
1.778459733E0,-4.480560422E-1,8.569893837E0,1.359123230E0
1.780813275E0,-3.583251834E-1,8.609375954E0,1.345364571E0
1.783166816E0,-2.727817893E-1,8.633902550E0,1.313061476E0
1.785520358E0,-1.591227055E-1,8.654241562E0,1.314856052E0
1.787873952E0,-6.999006122E-2,8.698508263E0,1.320239902E0
1.790227493E0,2.452643216E-2,8.742775917E0,1.354935765E0
1.792581035E0,1.088734269E-1,8.781659126E0,1.399203062E0
1.794934577E0,1.692921966E-1,8.834898949E0,1.433300734E0
1.797288118E0,2.159522474E-1,8.859425545E0,1.453041553E0
1.799641660E0,2.572284341E-1,8.922237396E0,1.486541033E0
1.801995202E0,2.608176768E-1,8.985049248E0,1.524826288E0
1.804348743E0,2.458625287E-1,9.041878700E0,1.524227977E0
1.806702285E0,2.350948304E-1,9.142376900E0,1.571486235E0
1.809055827E0,1.716850251E-1,9.237491608E0,1.598405480E0
1.811409368E0,1.040877849E-1,9.351749420E0,1.625324726E0
1.813762910E0,5.563312769E-2,9.475577354E0,1.604985833E0
1.816116452E0,-2.991028363E-3,9.604191780E0,1.612762451E0
1.818469993E0,-7.118647546E-2,9.713663101E0,1.634896040E0
1.820823535E0,-1.244267747E-1,9.828518867E0,1.637887120E0
1.823177077E0,-1.776670814E-1,9.914062500E0,1.641476393E0
1.825530618E0,-2.207378894E-1,9.980463028E0,1.635494232E0
1.827884160E0,-2.548356056E-1,1.002293587E1,1.649253011E0
1.830237702E0,-2.638086975E-1,1.003250694E1,1.634297848E0
1.832591243E0,-2.733799815E-1,1.001336479E1,1.639083505E0
1.834944785E0,-2.967100143E-1,9.979865074E0,1.634297848E0
1.837298379E0,-3.439682424E-1,9.926624298E0,1.653440475E0
1.839651868E0,-3.433700502E-1,9.869196892E0,1.648654819E0
1.842005410E0,-3.750749528E-1,9.778269768E0,1.644467354E0
1.844359004E0,-3.936193287E-1,9.715457916E0,1.663609982E0
1.846712546E0,-4.025924206E-1,9.614959717E0,1.683350682E0
1.849066087E0,-4.205385745E-1,9.538389206E0,1.664806366E0
1.851419629E0,-4.384847581E-1,9.437891006E0,1.669592023E0
1.853773171E0,-4.707878530E-1,9.341579437E0,1.665404558E0
1.856126712E0,-4.743770957E-1,9.251250267E0,1.666002750E0
1.858480254E0,-5.168496966E-1,9.164510727E0,1.694716692E0
1.860833796E0,-5.353940725E-1,9.107083321E0,1.709073544E0
1.863187337E0,-5.856433511E-1,8.992227554E0,1.680359721E0
1.865540879E0,-6.323033571E-1,8.924630165E0,1.666002750E0
1.867894421E0,-7.070791125E-1,8.837890625E0,1.651047587E0
1.870247962E0,-7.525427341E-1,8.760722160E0,1.598405480E0
1.872601504E0,-8.225327730E-1,8.687741280E0,1.573879123E0
1.874955046E0,-9.200403094E-1,8.590232849E0,1.530210137E0
1.877308587E0,-1.018744230E0,8.508278847E0,1.505085468E0
1.879662129E0,-1.097707391E0,8.430512428E0,1.479960799E0
1.882015671E0,-1.173081279E0,8.343772888E0,1.450648785E0
1.884369212E0,-1.261615753E0,8.247461319E0,1.426122308E0
1.886722754E0,-1.341177106E0,8.179265976E0,1.411167145E0
1.889076296E0,-1.421336651E0,8.135597229E0,1.409970760E0
1.891429837E0,-1.497308731E0,8.096714020E0,1.428515077E0
1.893783379E0,-1.563111424E0,8.053044319E0,1.427916884E0
1.896136921E0,-1.648056626E0,8.033304214E0,1.426720500E0
1.898490462E0,-1.724028707E0,8.027919769E0,1.435693622E0
1.900844056E0,-1.814357758E0,8.084151268E0,1.438684583E0
1.903197598E0,-1.899901152E0,8.102695465E0,1.427318692E0
1.905551139E0,-1.995015860E0,8.120641708E0,1.435693622E0
1.907904681E0,-2.056631088E0,8.139185905E0,1.410568953E0
1.910258223E0,-2.127817631E0,8.162516594E0,1.428515077E0
1.912611764E0,-2.156531334E0,8.185846329E0,1.423131227E0
1.914965306E0,-2.233101845E0,8.194819450E0,1.450648785E0
1.917318848E0,-2.290529490E0,8.218149185E0,1.445264935E0
1.919672389E0,-2.334198475E0,8.246863365E0,1.482353687E0
1.922025931E0,-2.386242390E0,8.227122307E0,1.501496196E0
1.924379473E0,-2.420340061E0,8.246863365E0,1.563111424E0
1.926733014E0,-2.477767944E0,8.236693382E0,1.600798368E0
1.929086556E0,-2.516651154E0,8.246265411E0,1.657627940E0
1.931440098E0,-2.541775942E0,8.279764175E0,1.724626899E0
1.933793639E0,-2.557329178E0,8.285148621E0,1.810170293E0
1.936147181E0,-2.597409010E0,8.328219414E0,1.905285001E0
1.938500723E0,-2.594418049E0,8.371888161E0,1.996212244E0
1.940854264E0,-2.592025042E0,8.439485550E0,2.072782516E0
1.943207806E0,-2.589632273E0,8.516056061E0,2.177468538E0
1.945561348E0,-2.572882652E0,8.589036942E0,2.287538528E0
1.947914889E0,-2.551945448E0,8.666803360E0,2.397608280E0
1.950268431E0,-2.535793781E0,8.763114929E0,2.526222467E0
1.952621973E0,-2.501097918E0,8.855237961E0,2.642274380E0
1.954975514E0,-2.489133835E0,8.918049812E0,2.766701221E0
1.957329108E0,-2.477767944E0,9.014361382E0,2.876172781E0
1.959682650E0,-2.461018085E0,9.087342262E0,2.981456995E0
1.962036191E0,-2.454437733E0,9.178867340E0,3.086143017E0
1.964389733E0,-2.437688112E0,9.241679192E0,3.186641455E0
1.966743275E0,-2.458625317E0,9.323035240E0,3.276970625E0
1.969096816E0,-2.461018085E0,9.381061554E0,3.367897987E0
1.971450358E0,-2.458027124E0,9.448657990E0,3.453441381E0
1.973803900E0,-2.464607239E0,9.501300812E0,3.505485058E0
1.976157441E0,-2.437089920E0,9.530612946E0,3.563511133E0
1.978510983E0,-2.428714991E0,9.559925079E0,3.616153240E0
1.980864525E0,-2.415554523E0,9.588638306E0,3.640081406E0
1.983218066E0,-2.382653236E0,9.589237213E0,3.674179077E0
1.985571608E0,-2.354537487E0,9.570692062E0,3.703491211E0
1.987925150E0,-2.297708035E0,9.571290970E0,3.718446493E0
1.990278691E0,-2.259422779E0,9.561718941E0,3.714258909E0
1.992632233E0,-2.216351986E0,9.533603668E0,3.725026608E0
1.994985775E0,-2.182852507E0,9.528818130E0,3.706482172E0
1.997339316E0,-2.139781713E0,9.495916367E0,3.707080364E0
1.999692858E0,-2.097907305E0,9.510871887E0,3.717249870E0
2.002046400E0,-2.059622049E0,9.515657425E0,3.703491211E0
2.004399941E0,-2.021337032E0,9.544969559E0,3.669991732E0
2.006753483E0,-1.993221283E0,9.564111710E0,3.656233072E0
2.009107025E0,-1.935793519E0,9.621540070E0,3.617947817E0
2.011460566E0,-1.883749604E0,9.641280174E0,3.604189157E0
2.013814108E0,-1.846062660E0,9.665208817E0,3.590430260E0
2.016167702E0,-1.813161373E0,9.699306488E0,3.600001574E0
2.018521243E0,-1.771286964E0,9.761520386E0,3.585644722E0
2.020874785E0,-1.710269928E0,9.820143700E0,3.591028690E0
2.023228327E0,-1.681556106E0,9.844072342E0,3.567698479E0
2.025581868E0,-1.643869162E0,9.897313118E0,3.543770313E0
2.027935410E0,-1.601396561E0,9.973882675E0,3.505485058E0
2.030288952E0,-1.563709617E0,1.001695347E1,3.476771355E0
2.032642493E0,-1.521237016E0,1.005523872E1,3.463012457E0
2.034996035E0,-1.488335729E0,1.010847950E1,3.448655605E0
2.037349577E0,-1.459621787E0,1.014197922E1,3.424727440E0
2.039703118E0,-1.450050473E0,1.016112137E1,3.415156126E0
2.042056660E0,-1.412961721E0,1.022812080E1,3.405584812E0
2.044410202E0,-1.375274777E0,1.022871876E1,3.415754318E0
2.046763743E0,-1.361516118E0,1.026700401E1,3.425325632E0
2.049117285E0,-1.319043517E0,1.029153061E1,3.434896946E0
2.051470827E0,-1.301097274E0,1.031545830E1,3.449851990E0
2.053824368E0,-1.286740422E0,1.034417248E1,3.435495138E0
2.056177910E0,-1.253839016E0,1.038305569E1,3.425923824E0
2.058531452E0,-1.229910851E0,1.039262676E1,3.392424345E0
2.060884993E0,-1.167697430E0,1.039801121E1,3.384049416E0
2.063238535E0,-1.143769264E0,1.039801121E1,3.374478102E0
2.065592077E0,-1.115055323E0,1.042672443E1,3.350549936E0
2.067945671E0,-1.062413216E0,1.043150997E1,3.303889751E0
2.070299212E0,-1.023529887E0,1.043689442E1,3.265604734E0
2.072652754E0,-9.990034699E-1,1.043150997E1,3.218346357E0
2.075006296E0,-9.655039310E-1,1.043210888E1,3.165704250E0
2.077359837E0,-9.367900491E-1,1.045125103E1,3.142374277E0
2.079713379E0,-9.170492887E-1,1.047936630E1,3.084946632E0
2.082066921E0,-8.835497499E-1,1.047517967E1,3.056830883E0
2.084420462E0,-9.116654396E-1,1.051765156E1,3.002992392E0
2.086774004E0,-8.871390224E-1,1.053141022E1,2.964707375E0
2.089127546E0,-8.823533654E-1,1.057448101E1,2.916850805E0
2.091481087E0,-8.392825127E-1,1.058405304E1,2.898306370E0
2.093834629E0,-8.482556343E-1,1.060319519E1,2.849851847E0
2.096188171E0,-8.285148144E-1,1.061695385E1,2.792423964E0
2.098541712E0,-8.141579032E-1,1.062712383E1,2.793022156E0
2.100895254E0,-8.189435601E-1,1.061216831E1,2.769093990E0
2.103248796E0,-8.177471161E-1,1.059781170E1,2.735594511E0
2.105602337E0,-8.033902049E-1,1.062173939E1,2.697309256E0
2.107955879E0,-8.261220455E-1,1.061635590E1,2.624926329E0
2.110309421E0,-8.297112584E-1,1.061097240E1,2.581257343E0
2.112662962E0,-8.291130662E-1,1.058704376E1,2.562114954E0
2.115016504E0,-8.662018180E-1,1.058644581E1,2.504088879E0
2.117370046E0,-9.032905698E-1,1.053320503E1,2.479562521E0
2.119723587E0,-9.116654396E-1,1.051406288E1,2.436491728E0
2.122077129E0,-9.403793216E-1,1.049432182E1,2.436491728E0
2.124430671E0,-9.768698215E-1,1.042732334E1,2.407777786E0
2.126784212E0,-1.014556766E0,1.039801121E1,2.407179594E0
2.129137754E0,-1.042074203E0,1.036391354E1,2.378465652E0
2.131491348E0,-1.046859860E0,1.033579731E1,2.397608280E0
2.133844889E0,-1.117448211E0,1.033938694E1,2.362912416E0
2.136198431E0,-1.135992527E0,1.030588722E1,2.358126640E0
2.138551973E0,-1.183848977E0,1.027178955E1,2.357528448E0
2.140905514E0,-1.187438250E0,1.024307537E1,2.324627161E0
2.143259056E0,-1.215553880E0,1.018983555E1,2.329412937E0
2.145612598E0,-1.233500123E0,1.014676476E1,2.305484533E0
2.147966139E0,-1.265803218E0,1.010788059E1,2.280958176E0
2.150319681E0,-1.289133191E0,1.007916737E1,2.266601324E0
2.152673223E0,-1.302293777E0,1.005942631E1,2.223530531E0
2.155026764E0,-1.344168067E0,1.003489971E1,2.179861546E0
2.157380306E0,-1.353739381E0,1.002532864E1,2.175075769E0
2.159733848E0,-1.381256819E0,9.981659889E0,2.146361828E0
2.162087389E0,-1.408774376E0,9.929018021E0,2.136192322E0
2.164440931E0,-1.445863128E0,9.885348320E0,2.112264156E0
2.166794473E0,-1.463809252E0,9.861420631E0,2.073979139E0
2.169148014E0,-1.524227977E0,9.850652695E0,2.010569334E0
2.171501556E0,-1.570888042E0,9.840482712E0,1.971685886E0
2.173855098E0,-1.612762451E0,9.830313683E0,1.923231244E0
2.176208639E0,-1.640279889E0,9.853045464E0,1.850848317E0
2.178562181E0,-1.673181176E0,9.871589661E0,1.811964989E0
2.180915723E0,-1.738983870E0,9.918848038E0,1.757528186E0
2.183269264E0,-1.781456470E0,9.942177773E0,1.723430514E0
2.185622806E0,-1.823330879E0,9.960124016E0,1.660020709E0
2.187976400E0,-1.841277003E0,9.964909554E0,1.616949916E0
2.190329889E0,-1.878963947E0,9.964311600E0,1.573280931E0
2.192683431E0,-1.896910191E0,9.978070259E0,1.520040631E0
2.195037025E0,-1.891526341E0,9.967901230E0,1.485942841E0
2.197390566E0,-1.914856315E0,9.982257843E0,1.466202021E0
2.199744108E0,-1.942971945E0,9.981659889E0,1.423131227E0
2.202097650E0,-1.951945066E0,1.000020409E1,1.374676585E0
2.204451191E0,-1.970489502E0,9.976275444E0,1.389033556E0
2.206804733E0,-1.994417667E0,9.966704369E0,1.383649707E0
2.209158275E0,-2.031506538E0,9.970891953E0,1.344766378E0
2.211511816E0,-2.026720762E0,9.985248566E0,1.330409408E0
2.213865358E0,-2.035693884E0,9.951150894E0,1.316052437E0
2.216218900E0,-2.049452543E0,9.941579819E0,1.316052437E0
2.218572441E0,-2.045265198E0,9.917651176E0,1.330409408E0
2.220925983E0,-2.016551256E0,9.879964828E0,1.355534077E0
2.223279525E0,-1.992623091E0,9.823135376E0,1.380060434E0
2.225633066E0,-1.949552298E0,9.795019150E0,1.366301775E0
2.227986608E0,-1.912463546E0,9.776474953E0,1.429711580E0
2.230340150E0,-1.883749604E0,9.761520386E0,1.425524116E0
2.232693691E0,-1.846062660E0,9.738189697E0,1.435693622E0
2.235047233E0,-1.798804402E0,9.748359680E0,1.450648785E0
2.237400775E0,-1.785045743E0,9.739386559E0,1.484148264E0
2.239754316E0,-1.752144337E0,9.725627899E0,1.519442320E0
2.242107858E0,-1.710269928E0,9.721440315E0,1.553540111E0
2.244461400E0,-1.677368641E0,9.674181938E0,1.597209096E0
2.246814941E0,-1.648654819E0,9.626325607E0,1.617548108E0
2.249168535E0,-1.601396561E0,9.617352486E0,1.646860242E0
2.251522077E0,-1.577468276E0,9.598808289E0,1.647458434E0
2.253875618E0,-1.572084427E0,9.560523033E0,1.637887120E0
2.256229160E0,-1.567298889E0,9.570094109E0,1.628315806E0
2.258582702E0,-1.576271892E0,9.583852768E0,1.585245013E0
2.260936243E0,-1.590030670E0,9.574281693E0,1.555932879E0
2.263289785E0,-1.599003673E0,9.592825890E0,1.517647743E0
2.265643327E0,-1.641476393E0,9.587442398E0,1.482951880E0
2.267996868E0,-1.688136339E0,9.620343208E0,1.419542074E0
2.270350410E0,-1.734198213E0,9.638289452E0,1.346560955E0
2.272703952E0,-1.813759565E0,9.661021233E0,1.254437327E0
2.275057493E0,-1.841277003E0,9.703494072E0,1.191625714E0
2.277411035E0,-1.916650891E0,9.707083702E0,1.133001566E0
2.279764577E0,-1.962712765E0,9.739386559E0,1.050449133E0
2.282118118E0,-2.029113531E0,9.782457352E0,1.025324464E0
2.284471660E0,-2.118844509E0,9.805189133E0,9.948160052E-1
2.286825202E0,-2.161915302E0,9.842875481E0,9.888339639E-1
2.289178743E0,-2.194816589E0,9.885348320E0,9.355936646E-1
2.291532285E0,-2.228316069E0,9.927821159E0,9.349954724E-1
2.293885827E0,-2.276172638E0,9.955936432E0,9.194421172E-1
2.296239368E0,-2.324028969E0,9.984052658E0,9.044869542E-1
2.298592910E0,-2.342573404E0,9.979267120E0,8.991031051E-1
2.300946452E0,-2.376072884E0,9.984052658E0,9.128618240E-1
2.303299993E0,-2.375474691E0,9.978668213E0,8.841479421E-1
2.305653535E0,-2.389831543E0,9.988240242E0,8.889335990E-1
2.308007077E0,-2.380260229E0,9.988240242E0,8.841479421E-1
2.310360671E0,-2.347957134E0,9.964909554E0,9.278169870E-1
2.312714212E0,-2.347957134E0,9.941579819E0,9.667003751E-1
2.315067754E0,-2.319841623E0,9.879964828E0,1.005583763E0
2.317421296E0,-2.281556368E0,9.870393753E0,9.870393276E-1
2.319774837E0,-2.246860504E0,9.813564301E0,9.930213690E-1
2.322128379E0,-2.231905222E0,9.731609344E0,9.936196208E-1
2.324481921E0,-2.164906263E0,9.689137459E0,9.708877802E-1
2.326835462E0,-2.134995937E0,9.594022751E0,9.577272534E-1
2.329189004E0,-2.105684042E0,9.522237778E0,9.397810698E-1
2.331542546E0,-2.047059774E0,9.417551994E0,8.931210637E-1
2.333896087E0,-1.994417667E0,9.327222824E0,9.236295223E-1
2.336249629E0,-1.988435626E0,9.217751503E0,9.050851464E-1
2.338603171E0,-1.973480463E0,9.136395454E0,9.008977413E-1
2.340956712E0,-1.953739643E0,9.064610481E0,9.020941257E-1
2.343310254E0,-1.962114573E0,9.007183075E0,8.877372146E-1
2.345663796E0,-1.999801517E0,8.983254433E0,8.823533654E-1
2.348017337E0,-2.036890268E0,8.944371223E0,8.727820516E-1
2.350370879E0,-2.065604210E0,8.930013657E0,8.823533654E-1
2.352724421E0,-2.097907305E0,8.891130447E0,8.530412912E-1
2.355077962E0,-2.145165443E0,8.876175880E0,8.380861282E-1
2.357431504E0,-2.206182480E0,8.846863747E0,8.279166222E-1
2.359785046E0,-2.238485575E0,8.822337151E0,8.129615188E-1
2.362138587E0,-2.276172638E0,8.826524734E0,7.597211599E-1
2.364492129E0,-2.294118643E0,8.807381630E0,7.118647099E-1
2.366845671E0,-2.345564365E0,8.772686005E0,6.634100676E-1
2.369199264E0,-2.358724833E0,8.763114929E0,6.203392744E-1
2.371552806E0,-2.404786825E0,8.728418350E0,5.670989752E-1
2.373906348E0,-2.422732830E0,8.694919586E0,5.288137794E-1
2.376259889E0,-2.469393015E0,8.665607452E0,4.995017350E-1
2.378613431E0,-2.483151674E0,8.621339798E0,4.755735099E-1
2.380966973E0,-2.511267424E0,8.592626572E0,4.654040039E-1
2.383320514E0,-2.533999205E0,8.568697929E0,4.558327198E-1
2.385674056E0,-2.548356056E0,8.572885513E0,4.414757788E-1
2.388027598E0,-2.576471806E0,8.591429710E0,4.169493318E-1
2.390381139E0,-2.577069998E0,8.629714966E0,4.163511395E-1
2.392734681E0,-2.572284460E0,8.668598175E0,4.019941986E-1
2.395088223E0,-2.586043119E0,8.725427628E0,3.433700502E-1
2.397441764E0,-2.590828657E0,8.768498421E0,3.092723191E-1
2.399795306E0,-2.586641312E0,8.830712318E0,2.943171859E-1
2.402148848E0,-2.582453728E0,8.901898384E0,2.841476798E-1
2.404502389E0,-2.577069998E0,8.940183640E0,2.219343036E-1
2.406855931E0,-2.577069998E0,9.001798630E0,1.926222295E-1
2.409209473E0,-2.587239504E0,9.073583603E0,1.680957973E-1
2.411563014E0,-2.592025042E0,9.116056442E0,1.531406492E-1
2.413916556E0,-2.597409010E0,9.202198029E0,1.573280841E-1
2.416270098E0,-2.641077995E0,9.297312737E0,1.465603858E-1
2.418623639E0,-2.665604353E0,9.397212982E0,1.453639716E-1
2.420977181E0,-2.709273338E0,9.492327690E0,1.345962733E-1
2.423330723E0,-2.752942562E0,9.578469276E0,1.525424421E-1
2.425684316E0,-2.801397085E0,9.644869804E0,1.609173268E-1
2.428037806E0,-2.840878725E0,9.774082184E0,1.878365725E-1
2.430391348E0,-2.879761934E0,9.845867157E0,2.057827413E-1
2.432744941E0,-2.913859844E0,9.945767403E0,1.902294010E-1
2.435098483E0,-2.947957516E0,9.993025780E0,2.135594189E-1
2.437452025E0,-2.986242771E0,1.004028416E1,2.033899277E-1
2.439805566E0,-3.000599623E0,1.006899738E1,1.980060786E-1
2.442159108E0,-3.010769129E0,1.011206818E1,2.165504545E-1
2.444512650E0,-3.035295486E0,1.016471100E1,2.398804724E-1
2.446866191E0,-3.063411236E0,1.017846966E1,2.201396823E-1
2.449219733E0,-3.063411236E0,1.018804073E1,1.962114573E-1
2.451573275E0,-3.072384357E0,1.017787075E1,1.627119333E-1
2.453926816E0,-3.090330362E0,1.015394306E1,1.190429255E-1
2.456280358E0,-3.104089260E0,1.014377308E1,1.190429255E-1
2.458633900E0,-3.117847919E0,1.011984539E1,9.511470050E-2
2.460987441E0,-3.169891834E0,1.008096218E1,9.930214286E-2
2.463340983E0,-3.159722328E0,1.004327488E1,9.032905847E-2
2.465694525E0,-3.178864956E0,1.001874828E1,1.046859920E-1
2.468048066E0,-3.220739365E0,9.970891953E0,1.184447184E-1
2.470401608E0,-3.253640652E0,9.894321442E0,1.381855011E-1
2.472755150E0,-3.276372433E0,9.832108498E0,1.333998591E-1
2.475108691E0,-3.290729284E0,9.788438797E0,1.333998591E-1
2.477462233E0,-3.308675528E0,9.725627899E0,1.190429255E-1
2.479815775E0,-3.355933666E0,9.692128181E0,1.429711580E-1
2.482169316E0,-3.360121250E0,9.639486313E0,1.286142170E-1
2.484522858E0,-3.392424345E0,9.614959717E0,1.088734269E-1
2.486876400E0,-3.430111170E0,9.571290970E0,8.015955985E-2
2.489229941E0,-3.443870068E0,9.513862610E0,7.537391037E-2
2.491583483E0,-3.476173162E0,9.456435204E0,7.537391037E-2
2.493937025E0,-3.532404423E0,9.422337532E0,5.563312769E-2
2.496290618E0,-3.593421459E0,9.373882294E0,4.546362907E-2
2.498644108E0,-3.631108284E0,9.334999084E0,6.939185411E-2
2.500997702E0,-3.720839262E0,9.310472488E0,7.298108935E-2
2.503351243E0,-3.782454491E0,9.290732384E0,7.716853172E-2
2.505704785E0,-3.857828379E0,9.247062683E0,8.135596663E-2
2.508058327E0,-3.924229145E0,9.208179474E0,8.973085135E-2
2.510411868E0,-3.999603033E0,9.202795982E0,8.913264424E-2
2.512765410E0,-4.070789337E0,9.168698311E0,9.272187948E-2
2.515118952E0,-4.165306091E0,9.162715912E0,7.716853172E-2
2.517472493E0,-4.240679741E0,9.147761345E0,8.075776696E-2
2.519826035E0,-4.306482315E0,9.099306107E0,6.101697683E-2
2.522179577E0,-4.396213531E0,9.079565048E0,6.460621208E-2
2.524533118E0,-4.467400074E0,9.050253868E0,7.836493850E-2
2.526886660E0,-4.524229527E0,9.006584167E0,9.212367237E-2
2.529240202E0,-4.581058979E0,8.991629601E0,8.673982322E-2
2.531593743E0,-4.633102894E0,8.976674080E0,7.657032460E-2
2.533947285E0,-4.680361271E0,8.966505051E0,7.597211748E-2
2.536300827E0,-4.722833633E0,8.966505051E0,8.973085135E-2
2.538654368E0,-4.779065132E0,8.956335068E0,6.041877344E-2
2.541007910E0,-4.831109047E0,8.950951576E0,4.007977992E-2
2.543361452E0,-4.878965378E0,8.931210518E0,7.357929647E-2
2.545714993E0,-4.911866665E0,8.921639442E0,6.819544733E-2
2.548068535E0,-4.940580368E0,8.892925262E0,1.016949639E-1
2.550422077E0,-4.983053207E0,8.887541771E0,1.154536903E-1
2.552775618E0,-5.016552448E0,8.863613129E0,1.435693651E-1
2.555129212E0,-5.050052166E0,8.863015175E0,1.579262912E-1
2.557482702E0,-5.078765869E0,8.830113411E0,2.099701911E-1
2.559836296E0,-5.088935375E0,8.825327873E0,2.434697002E-1
2.562189837E0,-5.121836662E0,8.806185722E0,2.626122832E-1
2.564543379E0,-5.123033047E0,8.796614647E0,3.248256743E-1
2.566896921E0,-5.147559643E0,8.772686005E0,3.828516304E-1
2.569250462E0,-5.134399414E0,8.782855988E0,4.498506486E-1
2.571604004E0,-5.129613400E0,8.764310837E0,4.600201547E-1
2.573957546E0,-5.163711071E0,8.735597610E0,5.270192027E-1
2.576311087E0,-5.154139996E0,8.730812073E0,5.270192027E-1
2.578664629E0,-5.167898655E0,8.673383713E0,5.461617708E-1
2.581018171E0,-5.167300701E0,8.668598175E0,5.270192027E-1
2.583371712E0,-5.181059361E0,8.629714966E0,5.126622319E-1
2.585725254E0,-5.185844898E0,8.614759445E0,5.126622319E-1
2.588078796E0,-5.194219589E0,8.562117577E0,5.036891699E-1
2.590432337E0,-5.203791142E0,8.542975426E0,5.132604837E-1
2.592785879E0,-5.212764263E0,8.495118141E0,5.036891699E-1
2.595139421E0,-5.226522923E0,8.456833839E0,5.180460811E-1
2.597492962E0,-5.240880013E0,8.428119659E0,5.228317380E-1
2.599846504E0,-5.245067120E0,8.370692253E0,5.330012441E-1
2.602200046E0,-5.268397331E0,8.332406998E0,5.473581553E-1
2.604553587E0,-5.268397331E0,8.289336205E0,5.670989752E-1
2.606907129E0,-5.282155991E0,8.232506752E0,5.862415433E-1
2.609260671E0,-5.282155991E0,8.175078392E0,6.011967063E-1
2.611614212E0,-5.281557560E0,8.146365166E0,6.059823632E-1
2.613967754E0,-5.290530682E0,8.112865448E0,5.724828243E-1
2.616321296E0,-5.324030399E0,8.097909927E0,5.964110494E-1
2.618674837E0,-5.318646431E0,8.083553314E0,5.964110494E-1
2.621028379E0,-5.309075356E0,8.060222626E0,5.964110494E-1
2.623381921E0,-5.341976643E0,8.021339417E0,5.916253924E-1
2.625735514E0,-5.336592674E0,7.983054638E0,5.970092416E-1
2.628089056E0,-5.335994720E0,7.925626755E0,5.778666735E-1
2.630442598E0,-5.340181828E0,7.877770424E0,5.784648657E-1
2.632796139E0,-5.358726501E0,7.825128078E0,5.736792088E-1
2.635149681E0,-5.348556995E0,7.762914658E0,5.790630579E-1
2.637503223E0,-5.347958565E0,7.706085205E0,5.748756528E-1
2.639856764E0,-5.337789059E0,7.667799950E0,5.653043389E-1
2.642210306E0,-5.356333256E0,7.619943619E0,5.754738450E-1
2.644563848E0,-5.341976643E0,7.615158081E0,5.611169338E-1
2.646917389E0,-5.350949764E0,7.595417500E0,5.515456200E-1
2.649270931E0,-5.356333256E0,7.624131203E0,5.605186820E-1
2.651624473E0,-5.384449005E0,7.633702278E0,5.509474277E-1
2.653978014E0,-5.394020557E0,7.633702278E0,5.455635786E-1
2.656331556E0,-5.417948723E0,7.671389580E0,5.497509837E-1
2.658685098E0,-5.455635548E0,7.675576687E0,5.300102234E-1
2.661038639E0,-5.461019516E0,7.699504852E0,5.443671346E-1
2.663392181E0,-5.498706341E0,7.699504852E0,5.294120312E-1
2.665745723E0,-5.526822090E0,7.703692436E0,5.096712112E-1
2.668099264E0,-5.545964718E0,7.717451096E0,4.947160780E-1
2.670452806E0,-5.592624664E0,7.726424217E0,4.654040039E-1
2.672806348E0,-5.621338367E0,7.721638680E0,4.893322289E-1
2.675159889E0,-5.660820007E0,7.750352383E0,5.072783828E-1
2.677513431E0,-5.670391560E0,7.773682594E0,5.024927258E-1
2.679866973E0,-5.717649937E0,7.806583881E0,4.821537733E-1
2.682220514E0,-5.736792088E0,7.811369419E0,4.869394004E-1
2.684574056E0,-5.746363640E0,7.820940971E0,5.006981492E-1
2.686927598E0,-5.746961594E0,7.830512047E0,5.341976285E-1
2.689281139E0,-5.756533146E0,7.859225750E0,5.246263742E-1
2.691634681E0,-5.770890236E0,7.854440212E0,5.288137794E-1
2.693988275E0,-5.794818401E0,7.906484127E0,5.138586760E-1
2.696341816E0,-5.780461311E0,7.897511005E0,5.192425251E-1
2.698695306E0,-5.775675774E0,7.949554920E0,4.803591371E-1
2.701048900E0,-5.770291805E0,7.949554920E0,4.229314029E-1
2.703402441E0,-5.779264927E0,7.972885132E0,3.643072546E-1
2.705755983E0,-5.740979671E0,7.987242222E0,3.457628787E-1
2.708109525E0,-5.712863922E0,7.968697548E0,3.607180119E-1
2.710463066E0,-5.679962635E0,7.992625713E0,3.607180119E-1
2.712816608E0,-5.670989513E0,7.998009682E0,4.145565331E-1
2.715170150E0,-5.632704735E0,8.021938324E0,4.049852192E-1
2.717523691E0,-5.609972477E0,8.036892891E0,4.630111754E-1
2.719877233E0,-5.553741455E0,8.042875290E0,4.971089065E-1
2.722230775E0,-5.531009674E0,8.105088234E0,5.258227587E-1
2.724584316E0,-5.493920803E0,8.148757935E0,5.407779217E-1
2.726937858E0,-5.409573555E0,8.206783295E0,5.605186820E-1
2.729291400E0,-5.334797859E0,8.274380684E0,5.611169338E-1
2.731644941E0,-5.268995285E0,8.346763611E0,5.617151260E-1
2.733998483E0,-5.188836098E0,8.438288689E0,5.383850932E-1
2.736352025E0,-5.127819061E0,8.491529465E0,5.240281820E-1
2.738705566E0,-5.061418056E0,8.582456589E0,4.815555513E-1
2.741059108E0,-5.018945694E0,8.664410591E0,4.145565331E-1
2.743412650E0,-4.972285271E0,8.736793518E0,4.241278172E-1
2.745766191E0,-4.896911621E0,8.804390907E0,4.199403822E-1
2.748119733E0,-4.873581409E0,8.866603851E0,4.055834413E-1
2.750473275E0,-4.841876507E0,8.924630165E0,4.390829504E-1
2.752826816E0,-4.832903385E0,8.991030693E0,4.241278172E-1
2.755180358E0,-4.829314232E0,9.077172279E0,4.331009090E-1
2.757533900E0,-4.829314232E0,9.139386177E0,4.229314029E-1
2.759887441E0,-4.811367989E0,9.192028046E0,4.420739710E-1
2.762240983E0,-4.831109047E0,9.263813019E0,4.558327198E-1
2.764594525E0,-4.826921463E0,9.302098274E0,4.606183469E-1
2.766948118E0,-4.822733879E0,9.321240425E0,4.797609448E-1
2.769301608E0,-4.819144726E0,9.350552559E0,5.174478889E-1
2.771655202E0,-4.819743156E0,9.369695663E0,5.413761139E-1
2.774008743E0,-4.805984497E0,9.384052277E0,5.557330847E-1
2.776362285E0,-4.795814991E0,9.379266739E0,5.467599630E-1
2.778715827E0,-4.744369030E0,9.394221306E0,5.521438122E-1
2.781069368E0,-4.753342152E0,9.403793335E0,5.276173949E-1
2.783422910E0,-4.738985062E0,9.399007797E0,5.090730190E-1
2.785776452E0,-4.719244480E0,9.408578873E0,4.755735099E-1
2.788129993E0,-4.719244480E0,9.460622787E0,4.414757788E-1
2.790483535E0,-4.719244480E0,9.494122505E0,3.936193287E-1
2.792837077E0,-4.690530777E0,9.551549911E0,3.696911037E-1
2.795190618E0,-4.685744762E0,9.585049629E0,3.445664644E-1
2.797544160E0,-4.680959225E0,9.661021233E0,2.817548811E-1
2.799897702E0,-4.667200565E0,9.751948357E0,2.572284341E-1
2.802251243E0,-4.648656368E0,9.795618057E0,2.333002090E-1
2.804604785E0,-4.619942188E0,9.819545746E0,1.956132501E-1
2.806958327E0,-4.581656933E0,9.867402077E0,1.525424421E-1
2.809311868E0,-4.538586140E0,9.857831001E0,1.435693651E-1
2.811665410E0,-4.490729809E0,9.853643417E0,1.441675574E-1
2.814018952E0,-4.443471432E0,9.839884758E0,1.495514214E-1
2.816372493E0,-4.390829563E0,9.806983948E0,1.555334777E-1
2.818726035E0,-4.362713814E0,9.802198410E0,1.609173268E-1
2.821079577E0,-4.339384079E0,9.778867722E0,2.093719840E-1
2.823433118E0,-4.297509670E0,9.789037704E0,2.530409992E-1
2.825786660E0,-4.284946918E0,9.803992271E0,3.343969584E-1
2.828140202E0,-4.271786690E0,9.852447510E0,3.972085714E-1
2.830493743E0,-4.240679741E0,9.891928673E0,4.935196638E-1
2.832847285E0,-4.237689018E0,9.921240807E0,5.892325640E-1
2.835200827E0,-4.216153622E0,9.974481583E0,6.658028960E-1
2.837554368E0,-4.189234257E0,1.000379372E1,7.477570772E-1
2.839907910E0,-4.153341770E0,1.003789139E1,8.530412912E-1
2.842261504E0,-4.078566074E0,1.006301594E1,9.212366939E-1
2.844615046E0,-4.004986763E0,1.009292603E1,1.018146038E0
2.846968587E0,-3.949951887E0,1.013240719E1,1.124028444E0
2.849322129E0,-3.852444410E0,1.019162941E1,1.220937729E0
2.851675671E0,-3.778865099E0,1.025025368E1,1.298106313E0
2.854029212E0,-3.681357622E0,1.029930687E1,1.414158225E0
2.856382754E0,-3.564707518E0,1.033938694E1,1.512263894E0
2.858736296E0,-3.439682484E0,1.039860916E1,1.624128342E0
2.861089837E0,-3.303889751E0,1.047697353E1,1.721037745E0
2.863443379E0,-3.196810961E0,1.055474091E1,1.813161373E0
2.865796921E0,-3.066402197E0,1.060439205E1,1.905883193E0
2.868150462E0,-2.955136061E0,1.068754196E1,1.993221283E0
2.870504004E0,-2.828914642E0,1.071326542E1,2.109871387E0
2.872857546E0,-2.717050076E0,1.072941685E1,2.207378864E0
2.875211087E0,-2.628515720E0,1.074497032E1,2.275574446E0
2.877564629E0,-2.529213428E0,1.070309544E1,2.349751949E0
2.879918171E0,-2.426322222E0,1.068574810E1,2.437688112E0
2.882271712E0,-2.341377020E0,1.061994553E1,2.501696110E0
2.884625254E0,-2.289931297E0,1.058704376E1,2.545365095E0
2.886978796E0,-2.260619164E0,1.053978539E1,2.575275421E0
2.889332337E0,-2.246262312E0,1.051645565E1,2.595016241E0
2.891685879E0,-2.255833626E0,1.046859932E1,2.609373093E0
2.894039421E0,-2.274976015E0,1.043031406E1,2.595016241E0
2.896392962E0,-2.302493572E0,1.042014408E1,2.560918331E0
2.898746504E0,-2.330609322E0,1.042433167E1,2.522035122E0
2.901100046E0,-2.339582443E0,1.043330479E1,2.493321180E0
2.903453587E0,-2.386242390E0,1.042373371E1,2.473580360E0
2.905807129E0,-2.432902336E0,1.040818024E1,2.439482689E0
2.908160671E0,-2.465803623E0,1.043629551E1,2.380858421E0
2.910514212E0,-2.488535643E0,1.042612648E1,2.323430777E0
2.912867754E0,-2.544766903E0,1.041595650E1,2.288734913E0
2.915221296E0,-2.590828657E0,1.040578747E1,2.245065928E0
2.917574837E0,-2.619542599E0,1.040040398E1,2.230708838E0
2.919928379E0,-2.652443886E0,1.041954613E1,2.215753794E0
2.922281921E0,-2.685345173E0,1.042851925E1,2.200798512E0
2.924635462E0,-2.723032236E0,1.040937710E1,2.214557409E0
2.926989004E0,-2.766103029E0,1.041835022E1,2.204387903E0
2.929342546E0,-2.775674343E0,1.045184898E1,2.208575249E0
2.931696139E0,-2.790031195E0,1.045125103E1,2.213361025E0
2.934049629E0,-2.814557552E0,1.045603657E1,2.255833626E0
2.936403223E0,-2.824128866E0,1.046082211E1,2.270190477E0
2.938756764E0,-2.804986238E0,1.045663452E1,2.270788670E0
2.941110306E0,-2.815155745E0,1.047577763E1,2.298904419E0
2.943463848E0,-2.801397085E0,1.048056316E1,2.294716835E0
2.945817389E0,-2.782254457E0,1.050927734E1,2.294716835E0
2.948170931E0,-2.749353170E0,1.052423191E1,2.299502611E0
2.950524473E0,-2.702693224E0,1.052483082E1,2.319243431E0
2.952878014E0,-2.674577475E0,1.055832958E1,2.324627161E0
2.955231556E0,-2.641676188E0,1.056371403E1,2.353939295E0
2.957585098E0,-2.571686029E0,1.060259724E1,2.373680115E0
2.959938639E0,-2.515454769E0,1.063190937E1,2.398206472E0
2.962292181E0,-2.473580360E0,1.068036366E1,2.412563324E0
2.964645723E0,-2.412563324E0,1.074317551E1,2.413161755E0
2.966999264E0,-2.375474691E0,1.081496048E1,2.427518606E0
2.969352806E0,-2.338984251E0,1.091665554E1,2.437089920E0
2.971706348E0,-2.306680918E0,1.103629589E1,2.426920414E0
2.974059889E0,-2.274377823E0,1.111765194E1,2.422134638E0
2.976413431E0,-2.270190477E0,1.123729324E1,2.411965132E0
2.978766973E0,-2.300698996E0,1.139462185E1,2.395813704E0
2.981120514E0,-2.339582443E0,1.154237843E1,2.384447813E0
2.983474056E0,-2.379063845E0,1.170927715E1,2.368296146E0
2.985827598E0,-2.428116798E0,1.191386414E1,2.337189436E0
2.988181139E0,-2.448455811E0,1.211486149E1,2.311466694E0
2.990534681E0,-2.492124796E0,1.227697468E1,2.276172638E0
2.992888223E0,-2.513062000E0,1.242473125E1,2.274976015E0
2.995241764E0,-2.486142635E0,1.254975700E1,2.307877541E0
2.997595306E0,-2.440679073E0,1.265504074E1,2.341377020E0
2.999948848E0,-2.338984251E0,1.276211929E1,2.428714991E0
3.002302389E0,-2.230708838E0,1.282074356E1,2.506481647E0
3.004655931E0,-2.081157446E0,1.287996578E1,2.599203587E0
3.007009473E0,-1.898704767E0,1.294457245E1,2.688336134E0
3.009363014E0,-1.730010748E0,1.301815128E1,2.761915445E0
3.011716556E0,-1.533201098E0,1.312104321E1,2.831307411E0
3.014070150E0,-1.359123230E0,1.320000648E1,2.852244616E0
3.016423691E0,-1.231705427E0,1.329212952E1,2.839084148E0
3.018777233E0,-1.107876897E0,1.335015583E1,2.806781054E0
3.021130775E0,-1.007976532E0,1.342732430E1,2.721835852E0
3.023484316E0,-9.505487680E-1,1.347996616E1,2.659622431E0
3.025837858E0,-9.260223508E-1,1.354158115E1,2.572882652E0
3.028191400E0,-9.637092948E-1,1.358883953E1,2.514258385E0
3.030544941E0,-1.044467092E0,1.362592888E1,2.489133835E0
3.032898483E0,-1.149153113E0,1.367318726E1,2.506481647E0
3.035252025E0,-1.268195987E0,1.367677593E1,2.495115757E0
3.037605566E0,-1.439282775E0,1.367019558E1,2.521436930E0
3.039959108E0,-1.637288928E0,1.362054443E1,2.513660192E0
3.042312650E0,-1.812563181E0,1.354277802E1,2.545365095E0
3.044666191E0,-1.981855392E0,1.340698528E1,2.553740025E0
3.047019733E0,-2.164906263E0,1.326221943E1,2.551945448E0
3.049373275E0,-2.306082726E0,1.309292698E1,2.551347256E0
3.051726816E0,-2.408375978E0,1.293380451E1,2.536391973E0
3.054080358E0,-2.516052961E0,1.277528000E1,2.540579557E0
3.056433900E0,-2.580659151E0,1.263111210E1,2.512463808E0
3.058787441E0,-2.639283419E0,1.247737408E1,2.455035925E0
3.061140983E0,-2.660818815E0,1.231884956E1,2.402992249E0
3.063494525E0,-2.691925526E0,1.217527962E1,2.355733871E0
3.065848066E0,-2.679961443E0,1.202692509E1,2.309073925E0
3.068201608E0,-2.667997360E0,1.187318611E1,2.252842426E0
3.070555150E0,-2.623131752E0,1.171047401E1,2.235494614E0
3.072908691E0,-2.587837696E0,1.150528908E1,2.232503414E0
3.075262233E0,-2.542972326E0,1.131446171E1,2.210369825E0
3.077615775E0,-2.489133835E0,1.113380337E1,2.217548370E0
3.079969316E0,-2.401795626E0,1.090528965E1,2.215753794E0
3.082322858E0,-2.333002090E0,1.070429230E1,2.222932339E0
3.084663275E0,-2.292922258E0,1.047517967E1,2.210968018E0
3.087029941E0,-2.242672920E0,1.032263660E1,2.179263115E0
3.089383483E0,-2.188236237E0,1.010788059E1,2.161915302E0
3.091723952E0,-2.148156643E0,9.926624298E0,2.154736757E0
3.094090566E0,-2.103889227E0,9.749555588E0,2.166102648E0
3.096444108E0,-2.078166485E0,9.563513756E0,2.143969059E0
3.098784577E0,-2.033301115E0,9.391828537E0,2.112264156E0
3.101151191E0,-2.016551256E0,9.257830620E0,2.070389748E0
3.103504733E0,-1.957927108E0,9.119645119E0,2.029113531E0
3.105858327E0,-1.927418590E0,9.028717995E0,1.981855392E0
3.108211868E0,-1.906481385E0,8.918647766E0,1.901695848E0
3.110565410E0,-1.861616015E0,8.822935104E0,1.840678811E0
3.112918952E0,-1.778465390E0,8.732007980E0,1.741974831E0
3.115272493E0,-1.719243050E0,8.612366676E0,1.666600943E0
3.117626035E0,-1.625923038E0,8.464610100E0,1.558923960E0
3.119979577E0,-1.529013634E0,8.340781212E0,1.474576950E0
3.122333118E0,-1.441675663E0,8.236095428E0,1.409372568E0
3.124686660E0,-1.320239902E0,8.107481003E0,1.320838094E0
3.127040202E0,-1.209571838E0,8.002795219E0,1.280160069E0
3.129393743E0,-1.088734269E0,7.936992645E0,1.229312658E0
3.131747285E0,-9.840483069E-1,7.871190071E0,1.217348576E0
3.134100827E0,-8.931210637E-1,7.804789066E0,1.209571838E0
3.136454368E0,-8.123632669E-1,7.772486210E0,1.215553880E0
3.138807910E0,-7.124629617E-1,7.768298626E0,1.222134113E0
3.141161452E0,-6.275177598E-1,7.726424217E0,1.247258782E0
3.143514993E0,-5.611169338E-1,7.670193195E0,1.292124271E0
3.145868535E0,-4.899304509E-1,7.594819069E0,1.346560955E0
3.148222077E0,-4.289134443E-1,7.542775154E0,1.390828133E0
3.150575618E0,-3.493520916E-1,7.500302792E0,1.478166223E0
3.152929160E0,-3.020938635E-1,7.467999458E0,1.518245935E0
3.155282702E0,-2.315055877E-1,7.420741081E0,1.567897081E0
3.157636243E0,-1.549352705E-1,7.369295597E0,1.583450437E0
3.159989785E0,-8.913264424E-2,7.336394310E0,1.618146300E0
3.162343327E0,-8.374879137E-3,7.308876991E0,1.667797327E0
3.164696868E0,4.785645381E-2,7.314260483E0,1.692323804E0
3.167050410E0,9.990034252E-2,7.324429989E0,1.688136339E0
3.169403952E0,1.333998591E-1,7.301100254E0,1.707877159E0
3.171757493E0,1.896311939E-1,7.339983463E0,1.703689694E0
3.174111035E0,2.033899277E-1,7.363911629E0,1.718046665E0
3.176464577E0,2.410768867E-1,7.383652687E0,1.709073544E0
3.178818118E0,2.506481707E-1,7.411767960E0,1.685145378E0
3.181171660E0,2.751746178E-1,7.473981380E0,1.617548108E0
3.183525202E0,2.793620527E-1,7.564908981E0,1.564307809E0
3.185878743E0,3.230310678E-1,7.593622684E0,1.507478237E0
3.188232285E0,3.517449200E-1,7.665407181E0,1.434497118E0
3.190585827E0,3.942175210E-1,7.708477974E0,1.425524116E0
3.192939368E0,4.223332107E-1,7.723433495E0,1.420738459E0
3.195292962E0,4.271188378E-1,7.742575645E0,1.420738459E0
3.197646452E0,4.552344978E-1,7.804789066E0,1.401595831E0
3.199999993E0,4.737788737E-1,7.857431412E0,1.396810174E0
3.202353535E0,4.773681164E-1,7.929215908E0,1.391426325E0
3.204707129E0,4.719842672E-1,8.015357971E0,1.400399446E0
3.207060671E0,4.701896608E-1,8.130212784E0,1.418943882E0
3.209414212E0,4.360919297E-1,8.234899521E0,1.421934843E0
3.211767754E0,4.061816335E-1,8.330612183E0,1.459621787E0
3.214121296E0,3.421736360E-1,8.483154297E0,1.496112347E0
3.216474837E0,2.644068897E-1,8.615956306E0,1.532602906E0
3.218828379E0,1.920240223E-1,8.716454506E0,1.573879123E0
3.221181921E0,9.511470050E-2,8.849854469E0,1.609771490E0
3.223535462E0,-1.196411322E-3,8.958727837E0,1.641476393E0
3.225889004E0,-6.879365444E-2,8.997013092E0,1.659422517E0
3.228242546E0,-1.603191197E-1,9.086744308E0,1.695913076E0
3.230596087E0,-2.512463629E-1,9.148359299E0,1.713261008E0
3.232949629E0,-3.469592929E-1,9.209376335E0,1.730608940E0
3.235303171E0,-4.378865361E-1,9.251849174E0,1.743171334E0
3.237656712E0,-5.425725579E-1,9.288937569E0,1.746162295E0
3.240010254E0,-6.323033571E-1,9.302696228E0,1.730608940E0
3.242363796E0,-7.028916478E-1,9.291928291E0,1.691127419E0
3.244717337E0,-8.159525394E-1,9.328418732E0,1.616949916E0
3.247070879E0,-9.002995491E-1,9.341579437E0,1.572682738E0
3.249424421E0,-9.948160052E-1,9.360123634E0,1.532602906E0
3.251777962E0,-1.083948612E0,9.401400566E0,1.473380566E0
3.254131504E0,-1.188634634E0,9.443274498E0,1.427916884E0
3.256485046E0,-1.350150228E0,9.518050194E0,1.391426325E0
3.258838587E0,-1.469193101E0,9.622138023E0,1.369890928E0
3.261192129E0,-1.631306887E0,9.739386559E0,1.333400369E0
3.263545671E0,-1.779063582E0,9.848857880E0,1.335195065E0
3.265899212E0,-1.927418590E0,1.001934624E1,1.331605792E0
3.268252754E0,-2.048256159E0,1.015693378E1,1.362712502E0
3.270606296E0,-2.188236237E0,1.031844902E1,1.431506157E0
3.272959837E0,-2.304886341E0,1.046082211E1,1.471585870E0
3.275313379E0,-2.368296146E0,1.055174923E1,1.547558069E0
3.277666921E0,-2.432304144E0,1.064267731E1,1.641476393E0
3.280020462E0,-2.490928411E0,1.066660500E1,1.717448473E0
3.282374004E0,-2.535195589E0,1.066660500E1,1.817348838E0
3.284727598E0,-2.583052158E0,1.061396313E1,1.908276081E0
3.287081139E0,-2.641676188E0,1.057567787E1,2.022533417E0
3.289434629E0,-2.680559635E0,1.049491978E1,2.128415823E0
3.291788171E0,-2.705085993E0,1.041416264E1,2.234298229E0
3.294141764E0,-2.725425005E0,1.031426239E1,2.388036966E0
3.296495254E0,-2.754138947E0,1.018086243E1,2.503490686E0
3.298848848E0,-2.739781857E0,1.000977516E1,2.620738983E0
3.301202389E0,-2.716451883E0,9.853045464E0,2.718246460E0
3.303555931E0,-2.686541557E0,9.647860527E0,2.782254457E0
3.305909473E0,-2.642872572E0,9.447462082E0,2.851646423E0
3.308263014E0,-2.580060959E0,9.257232666E0,2.897109985E0
3.310616556E0,-2.513062000E0,9.086145401E0,2.942573547E0
3.312970098E0,-2.455634356E0,8.938986778E0,3.006581545E0
3.315323639E0,-2.407179594E0,8.772686005E0,3.061018467E0
3.317677181E0,-2.363510609E0,8.619544983E0,3.101098061E0
3.320030723E0,-2.310868502E0,8.496315002E0,3.145963669E0
3.322384264E0,-2.267199516E0,8.363512993E0,3.214757204E0
3.324737806E0,-2.204986095E0,8.235497475E0,3.269193888E0
3.327091348E0,-2.181656122E0,8.159524918E0,3.327818155E0
3.329444889E0,-2.134397745E0,8.050053596E0,3.387040377E0
3.331798431E0,-2.101496458E0,7.965108395E0,3.455235958E0
3.334151973E0,-2.101496458E0,7.879564762E0,3.541975737E0
3.336505514E0,-2.063809633E0,7.822735310E0,3.595814228E0
3.338859056E0,-2.026122570E0,7.746763229E0,3.654438496E0
3.341212598E0,-2.012962103E0,7.714460373E0,3.736990690E0
3.343566139E0,-2.023131609E0,7.704888821E0,3.789632797E0
3.345919681E0,-2.005185366E0,7.695915699E0,3.857230186E0
3.348273223E0,-2.011167526E0,7.724629879E0,3.899702787E0
3.350626764E0,-2.026720762E0,7.758129120E0,3.957130432E0
3.352980306E0,-2.036890268E0,7.797012806E0,3.990031719E0
3.355333848E0,-2.042872429E0,7.825726509E0,4.057030678E0
3.357687389E0,-2.067398787E0,7.859225750E0,4.080360889E0
3.360040931E0,-2.091925144E0,7.911868095E0,4.118047714E0
3.362394473E0,-2.107478619E0,7.940581799E0,4.150949001E0
3.364748014E0,-2.155334949E0,7.983054638E0,4.179064751E0
3.367101556E0,-2.184647083E0,8.006982803E0,4.207180500E0
3.369455098E0,-2.218146563E0,8.002197266E0,4.244867325E0
3.371808639E0,-2.248056889E0,8.002197266E0,4.316651821E0
3.374162181E0,-2.271985054E0,8.016553879E0,4.330410957E0
3.376515723E0,-2.321038008E0,8.025527000E0,4.372883320E0
3.378869316E0,-2.374278307E0,8.049455643E0,4.429114819E0
3.381222858E0,-2.413161755E0,8.092526436E0,4.462016106E0
3.383576400E0,-2.418545485E0,8.087740898E0,4.509872437E0
3.385929941E0,-2.452044964E0,8.068597794E0,4.562514782E0
3.388283431E0,-2.443670034E0,8.059624672E0,4.619942188E0
3.390637025E0,-2.449054003E0,8.054839134E0,4.677370071E0
3.392990566E0,-2.440080881E0,8.045866013E0,4.721039295E0
3.395344108E0,-2.421536446E0,8.027321815E0,4.744967461E0
3.397697650E0,-2.431107759E0,7.989036560E0,4.779065132E0
3.400051191E0,-2.416750908E0,7.965108395E0,4.788636208E0
3.402404733E0,-2.374278307E0,7.946564198E0,4.818546772E0
3.404758275E0,-2.355135679E0,7.865806103E0,4.838287354E0
3.407111816E0,-2.331207514E0,7.818548203E0,4.883152962E0
3.409465358E0,-2.288734913E0,7.766504288E0,4.912465096E0
3.411818900E0,-2.264208317E0,7.724031448E0,4.932205677E0
3.414172441E0,-2.226521492E0,7.715058327E0,4.957330227E0
3.416525983E0,-2.193022013E0,7.671987534E0,4.962714195E0
3.418879525E0,-2.151147604E0,7.649255753E0,5.006382942E0
3.421233066E0,-2.146960020E0,7.620542049E0,5.069194794E0
3.423586608E0,-2.146960020E0,7.592426300E0,5.097908497E0
3.425940150E0,-2.157129526E0,7.578069210E0,5.132006168E0
3.428293691E0,-2.171486616E0,7.544569969E0,5.184648514E0
3.430647233E0,-2.204387903E0,7.505686283E0,5.193621635E0
3.433000775E0,-2.218146563E0,7.457829952E0,5.189434052E0
3.435354316E0,-2.227717876E0,7.424330235E0,5.218147755E0
3.437707858E0,-2.236690998E0,7.386045456E0,5.203791142E0
3.440061400E0,-2.264208317E0,7.356733322E0,5.155934811E0
3.442414941E0,-2.277967215E0,7.327421188E0,5.112864017E0
3.444768483E0,-2.310270309E0,7.293323517E0,5.078765869E0
3.447122025E0,-2.333002090E0,7.269395351E0,5.021338463E0
3.449475566E0,-2.393420935E0,7.211369038E0,5.001597404E0
3.451829108E0,-2.458625317E0,7.171887875E0,4.953142643E0
3.454182650E0,-2.514258385E0,7.128218651E0,4.923830986E0
3.456536191E0,-2.608176708E0,7.074379921E0,4.889134884E0
3.458889733E0,-2.687737942E0,7.021139622E0,4.878965378E0
3.461243275E0,-2.753540754E0,6.967899323E0,4.868795872E0
3.463596816E0,-2.818745136E0,6.905087948E0,4.848456860E0
3.465950358E0,-2.866003275E0,6.866204739E0,4.838287354E0
3.468303952E0,-2.912663460E0,6.812964439E0,4.828117847E0
3.470657441E0,-2.954537868E0,6.765107632E0,4.823332310E0
3.473010983E0,-2.968296528E0,6.731009960E0,4.818546772E0
3.475364525E0,-3.011367321E0,6.721438885E0,4.832305431E0
3.477718118E0,-3.025724173E0,6.692724705E0,4.861617565E0
3.480071660E0,-3.016152859E0,6.673582554E0,4.881358147E0
3.482425202E0,-3.012563705E0,6.678966045E0,4.934000492E0
3.484778743E0,-3.031706333E0,6.683752060E0,4.962714195E0
3.487132285E0,-3.000001431E0,6.708278179E0,5.024927616E0
3.489485827E0,-2.976671457E0,6.694519520E0,5.082953453E0
3.491839368E0,-2.953341246E0,6.699903488E0,5.097908497E0
3.494192910E0,-2.949752092E0,6.714260101E0,5.140979290E0
3.496546452E0,-2.903092146E0,6.714858532E0,5.184648514E0
3.498899993E0,-2.894119024E0,6.686742783E0,5.228317261E0
3.501253535E0,-2.866003275E0,6.663413048E0,5.267200947E0
3.503607077E0,-2.851646423E0,6.620342255E0,5.286941528E0
3.505960618E0,-2.822932482E0,6.592226505E0,5.287539959E0
3.508314160E0,-2.807977438E0,6.544369698E0,5.283352375E0
3.510667702E0,-2.793620348E0,6.506682873E0,5.288736343E0
3.513021243E0,-2.769692183E0,6.501897335E0,5.293521881E0
3.515374785E0,-2.741576433E0,6.492924213E0,5.308476925E0
3.517728327E0,-2.727219582E0,6.488138676E0,5.318646431E0
3.520081868E0,-2.704487801E0,6.498308182E0,5.347360611E0
3.522435410E0,-2.695514679E0,6.483951092E0,5.395814896E0
3.524788952E0,-2.648854733E0,6.494719028E0,5.453841209E0
3.527142493E0,-2.654836655E0,6.523432732E0,5.506483078E0
3.529496035E0,-2.627319336E0,6.557530403E0,5.549553871E0
3.531849577E0,-2.633899450E0,6.624529362E0,5.601597786E0
3.534203118E0,-2.621337175E0,6.672984123E0,5.659025669E0
3.536556660E0,-2.608774900E0,6.759125710E0,5.711069584E0
3.538910202E0,-2.624328136E0,6.830910206E0,5.748756409E0
3.541263743E0,-2.635095835E0,6.902695179E0,5.800800323E0
3.543617285E0,-2.612962246E0,6.970292568E0,5.848656654E0
3.545970827E0,-2.599801779E0,7.009175777E0,5.901299000E0
3.548324368E0,-2.586641312E0,7.052246571E0,5.915655613E0
3.550677910E0,-2.563311338E0,7.062416077E0,5.964110374E0
3.553031452E0,-2.539981127E0,7.052844524E0,5.973681927E0
3.555384993E0,-2.502892494E0,7.044469833E0,6.023332596E0
3.557738535E0,-2.498705149E0,7.020541668E0,6.066403389E0
3.560092077E0,-2.465803623E0,7.025925636E0,6.086144447E0
3.562445618E0,-2.432304144E0,7.021139622E0,6.096313953E0
3.564799160E0,-2.385046005E0,7.026523590E0,6.087340832E0
3.567152702E0,-2.367099762E0,7.041478634E0,6.125626087E0
3.569506296E0,-2.371885538E0,7.107879639E0,6.115456581E0
3.571859837E0,-2.358126640E0,7.155735970E0,6.086742401E0
3.574213379E0,-2.372483730E0,7.194021225E0,6.071787357E0
3.576566921E0,-2.358724833E0,7.198806763E0,6.095715523E0
3.578920462E0,-2.388036966E0,7.251449108E0,6.109474182E0
3.581274004E0,-2.407179594E0,7.317849636E0,6.099305153E0
3.583627546E0,-2.446063042E0,7.346563816E0,6.132206440E0
3.585981087E0,-2.475374937E0,7.375277519E0,6.179464340E0
3.588334629E0,-2.523829699E0,7.394420147E0,6.226124287E0
3.590688171E0,-2.571686029E0,7.393822193E0,6.268597126E0
3.593041712E0,-2.639283419E0,7.422535896E0,6.320641041E0
3.595395254E0,-2.673979282E0,7.422535896E0,6.401398659E0
3.597748796E0,-2.722434044E0,7.427321434E0,6.467799664E0
3.600102337E0,-2.746960402E0,7.422535896E0,6.525227547E0
3.602455879E0,-2.770888567E0,7.393822193E0,6.587440968E0
3.604809421E0,-2.804986238E0,7.393822193E0,6.634698868E0
3.607162962E0,-2.806182861E0,7.389634609E0,6.711269379E0
3.609516504E0,-2.821137905E0,7.365706444E0,6.763911247E0
3.611870046E0,-2.817548752E0,7.395018578E0,6.840481758E0
3.614223587E0,-2.818745136E0,7.390830994E0,6.898507595E0
3.616577129E0,-2.805584431E0,7.391428947E0,6.975078106E0
3.618930671E0,-2.858824968E0,7.419544697E0,7.007979393E0
3.621284212E0,-2.864208698E0,7.410571575E0,7.070192814E0
3.623637754E0,-2.893520832E0,7.410571575E0,7.132406235E0
3.625991296E0,-2.913261652E0,7.353144169E0,7.204789162E0
3.628344837E0,-2.961716175E0,7.338787079E0,7.266404152E0
3.630698379E0,-2.990430117E0,7.286743164E0,7.328617573E0
3.633051921E0,-3.008974552E0,7.219744205E0,7.372286797E0
3.635405462E0,-3.070589542E0,7.147361279E0,7.400402069E0
3.637759004E0,-3.098705292E0,7.089933395E0,7.433901787E0
3.640112546E0,-3.154936552E0,7.037291527E0,7.428517818E0
3.642466087E0,-3.202194929E0,6.979265213E0,7.447660446E0
3.644819629E0,-3.239881754E0,6.917052269E0,7.462017536E0
3.647173171E0,-3.290729284E0,6.835097790E0,7.452445984E0
3.649526712E0,-3.342773199E0,6.777071953E0,7.456633568E0
3.651880254E0,-3.418147087E0,6.747759819E0,7.427321434E0
3.654233796E0,-3.498306751E0,6.713662148E0,7.435696602E0
3.656587337E0,-3.574278831E0,6.646064758E0,7.463811874E0
3.658940879E0,-3.668197155E0,6.597609997E0,7.462615490E0
3.661294421E0,-3.762115479E0,6.524629116E0,7.452445984E0
3.663647962E0,-3.851248026E0,6.509075642E0,7.417750359E0
3.666001556E0,-3.969692707E0,6.470192432E0,7.416553974E0
3.668355046E0,-4.063611031E0,6.445067883E0,7.386045456E0
3.670708639E0,-4.129413605E0,6.501298904E0,7.317849636E0
3.673062181E0,-4.204189301E0,6.500102520E0,7.268796921E0
3.675415671E0,-4.289134502E0,6.522834301E0,7.204789162E0
3.677769264E0,-4.368695736E0,6.531209469E0,7.146164894E0
3.680122806E0,-4.442873478E0,6.534798622E0,7.058228493E0
3.682476348E0,-4.517649174E0,6.538387775E0,6.990033150E0
3.684829889E0,-4.592424870E0,6.532405853E0,6.893123627E0
3.687183431E0,-4.667798996E0,6.521637917E0,6.844070911E0
3.689536973E0,-4.727619171E0,6.492326260E0,6.771687984E0
3.691890514E0,-4.773082733E0,6.443273067E0,6.689733982E0
3.694244056E0,-4.824528694E0,6.413960934E0,6.641279221E0
3.696597598E0,-4.841876507E0,6.393621922E0,6.574280262E0
3.698951139E0,-4.831109047E0,6.350551128E0,6.512066841E0
3.701304681E0,-4.829912663E0,6.340381622E0,6.440282345E0
3.703658223E0,-4.805386066E0,6.354738712E0,6.387639999E0
3.706011764E0,-4.776073933E0,6.340381622E0,6.326025009E0
3.708365306E0,-4.719244480E0,6.398407936E0,6.283552170E0
3.710718848E0,-4.667200565E0,6.466004848E0,6.273981094E0
3.713072389E0,-4.621138573E0,6.533003807E0,6.293123722E0
3.715425931E0,-4.560719967E0,6.638886452E0,6.307480335E0
3.717779473E0,-4.505086899E0,6.716653347E0,6.355935097E0
3.720133014E0,-4.430909157E0,6.832107067E0,6.404389858E0
3.722486556E0,-4.362115860E0,6.971488953E0,6.466603279E0
3.724840098E0,-4.289134502E0,7.121040344E0,6.528816700E0
3.727193639E0,-4.191627026E0,7.265805721E0,6.572485447E0
3.729547181E0,-4.094717979E0,7.448258877E0,6.615556240E0
3.731900723E0,-4.007379532E0,7.641479015E0,6.668198586E0
3.734254264E0,-3.929612875E0,7.857431412E0,6.672386169E0
3.736607806E0,-3.856033802E0,8.072785378E0,6.686144829E0
3.738961348E0,-3.754338741E0,8.298907280E0,6.705287457E0
3.741314889E0,-3.680759430E0,8.528617859E0,6.704689026E0
3.743668431E0,-3.631108284E0,8.754739761E0,6.689733982E0
3.746021973E0,-3.604189157E0,8.974281311E0,6.664609432E0
3.748362441E0,-3.563511133E0,9.189635277E0,6.658627033E0
3.750729056E0,-3.570091486E0,9.381061554E0,6.647261143E0
3.753082598E0,-3.567698479E0,9.600603104E0,6.636493683E0
3.755423066E0,-3.588037491E0,9.753145218E0,6.620342255E0
3.757789681E0,-3.622135162E0,9.859027863E0,6.623931408E0
3.760143223E0,-3.637090445E0,9.944570541E0,6.613761902E0
3.762496764E0,-3.646661758E0,9.963713646E0,6.584449768E0
3.764850306E0,-3.641277790E0,9.967901230E0,6.550950050E0
3.767203848E0,-3.625724554E0,9.929615974E0,6.503692150E0
3.769557441E0,-3.595216036E0,9.853045464E0,6.418148518E0
3.771910931E0,-3.583850145E0,9.761520386E0,6.346961975E0
3.774264525E0,-3.533600807E0,9.622735977E0,6.253043652E0
3.776618066E0,-3.492922783E0,9.493523598E0,6.182455540E0
3.778971608E0,-3.428914785E0,9.345169067E0,6.108277798E0
3.781325150E0,-3.344567776E0,9.187840462E0,6.028716564E0
3.783678691E0,-3.294318676E0,9.020941734E0,5.934200287E0
3.786032233E0,-3.262613773E0,8.863015175E0,5.845067501E0
3.788385775E0,-3.189034462E0,8.700303078E0,5.789434433E0
3.790739316E0,-3.129812002E0,8.561519623E0,5.724229813E0
3.793092858E0,-3.080160856E0,8.428119659E0,5.663811207E0
3.795446400E0,-3.035893679E0,8.318049431E0,5.645864964E0
3.797799941E0,-2.986840963E0,8.227720261E0,5.599205017E0
3.800153483E0,-2.961117983E0,8.136793137E0,5.552545071E0
3.802507025E0,-2.927020311E0,8.093722343E0,5.500501156E0
3.804860566E0,-2.910868645E0,8.036294937E0,5.429314613E0
3.807214108E0,-2.870789051E0,7.978867054E0,5.338985443E0
3.809567650E0,-2.840878725E0,7.939983845E0,5.267798901E0
3.811921191E0,-2.825325251E0,7.882555962E0,5.201398373E0
3.814274733E0,-2.809173822E0,7.839485168E0,5.130211830E0
3.816628275E0,-2.769692183E0,7.762914658E0,5.063810825E0
3.818981816E0,-2.769093990E0,7.724629879E0,5.040481091E0
3.821335358E0,-2.753540754E0,7.652844906E0,4.998008251E0
3.823688900E0,-2.743371248E0,7.628916740E0,4.983651161E0
3.826042441E0,-2.751745939E0,7.599604607E0,4.926223755E0
3.828395983E0,-2.745764017E0,7.575676441E0,4.883152962E0
3.830749525E0,-2.692523718E0,7.551748276E0,4.831109047E0
3.833103066E0,-2.672782898E0,7.527820110E0,4.773681164E0
3.835456608E0,-2.638685226E0,7.493722439E0,4.736592293E0
3.837810150E0,-2.618346214E0,7.469794273E0,4.679164886E0
3.840163691E0,-2.611765862E0,7.450053215E0,4.583451748E0
3.842517233E0,-2.610569477E0,7.421339512E0,4.530809879E0
3.844870775E0,-2.590828657E0,7.420741081E0,4.459623337E0
3.847224316E0,-2.589632273E0,7.458428383E0,4.382454872E0
3.849577858E0,-2.584248543E0,7.448856831E0,4.320241451E0
3.851931400E0,-2.578864574E0,7.491329670E0,4.253242016E0
3.854284941E0,-2.549552441E0,7.554141045E0,4.166502476E0
3.856638483E0,-2.553141832E0,7.596015453E0,4.051048756E0
3.858992025E0,-2.580659151E0,7.643273830E0,3.983451605E0
3.861345566E0,-2.608176708E0,7.676175117E0,3.900899172E0
3.863699108E0,-2.641077995E0,7.722835064E0,3.838087559E0
3.866052650E0,-2.678166628E0,7.803592682E0,3.745963812E0
3.868406191E0,-2.711068153E0,7.879564762E0,3.696312666E0
3.870759733E0,-2.768495798E0,8.002795219E0,3.632304668E0
3.873113327E0,-2.810968399E0,8.097311974E0,3.563511133E0
3.875466816E0,-2.901297569E0,8.215756416E0,3.518645763E0
3.877820358E0,-2.944368362E0,8.324629784E0,3.454637766E0
3.880173900E0,-2.992224693E0,8.381459236E0,3.453441381E0
3.882527493E0,-3.049054146E0,8.433503151E0,3.413959742E0
3.884881035E0,-3.135195971E0,8.499305725E0,3.412165165E0
3.887234577E0,-3.215953588E0,8.570492744E0,3.386442184E0
3.889588066E0,-3.286541939E0,8.550153732E0,3.366701365E0
3.891941660E0,-3.357728481E0,8.583054543E0,3.355335474E0
3.894295202E0,-3.424129248E0,8.572885513E0,3.354737282E0
3.896648743E0,-3.476173162E0,8.553144455E0,3.354139090E0
3.899002285E0,-3.509074450E0,8.505288124E0,3.344567776E0
3.901355827E0,-3.532404423E0,8.457431793E0,3.363710403E0
3.903709368E0,-3.560520172E0,8.418548584E0,3.363710403E0
3.906062910E0,-3.531208038E0,8.395217896E0,3.349951744E0
3.908416452E0,-3.503092289E0,8.380861282E0,3.345165968E0
3.910769993E0,-3.483351469E0,8.380861282E0,3.321835995E0
3.913123535E0,-3.449253798E0,8.380861282E0,3.250051260E0
3.915477077E0,-3.396611691E0,8.371290207E0,3.212962627E0
3.917830618E0,-3.361915827E0,8.409575462E0,3.160320520E0
3.920184160E0,-3.328416348E0,8.404789925E0,3.108276606E0
3.922537702E0,-3.284747362E0,8.381459236E0,3.084946632E0
3.924891243E0,-3.260818958E0,8.391031265E0,3.070589542E0
3.927244785E0,-3.236890793E0,8.391031265E0,3.047259569E0
3.929598327E0,-3.227319479E0,8.429315567E0,2.998805046E0
3.931951868E0,-3.212962627E0,8.429315567E0,2.994617462E0
3.934305410E0,-3.241078377E0,8.471788406E0,2.950350285E0
3.936658952E0,-3.245863914E0,8.524430275E0,2.940778971E0
3.939012493E0,-3.283550978E0,8.575876236E0,2.882154942E0
3.941366035E0,-3.306880951E0,8.594420433E0,2.828914642E0
3.943719577E0,-3.343969584E0,8.579465866E0,2.790031195E0
3.946073118E0,-3.366701365E0,8.593224525E0,2.732005358E0
3.948426660E0,-3.394218922E0,8.583653450E0,2.688336134E0
3.950780202E0,-3.418147087E0,8.573483467E0,2.650051117E0
3.953133743E0,-3.460021496E0,8.587242126E0,2.590828657E0
3.955487285E0,-3.483351469E0,8.601000786E0,2.571686029E0
3.957840827E0,-3.501895905E0,8.624331474E0,2.532802820E0
3.960194368E0,-3.516252756E0,8.677571297E0,2.513062000E0
3.962547910E0,-3.540181160E0,8.743971825E0,2.492722988E0
3.964901452E0,-3.559921980E0,8.839086533E0,2.477767944E0
3.967254993E0,-3.561118364E0,8.944371223E0,2.486142635E0
3.969608535E0,-3.547957659E0,9.078369141E0,2.456830740E0
3.971962077E0,-3.550350666E0,9.202795982E0,2.518445730E0
3.974315618E0,-3.519243956E0,9.346963882E0,2.575275421E0
3.976669160E0,-3.483351469E0,9.457033157E0,2.603390932E0
3.979022702E0,-3.442075491E0,9.524630547E0,2.657229662E0
3.981376243E0,-3.375674486E0,9.535398483E0,2.696112871E0
3.983729785E0,-3.357728481E0,9.540781975E0,2.734996319E0
3.986083327E0,-3.296711445E0,9.531808853E0,2.779263496E0
3.988436868E0,-3.297309637E0,9.498908043E0,2.827120066E0
3.990790410E0,-3.273979664E0,9.461220741E0,2.875574589E0
3.993144004E0,-3.240479946E0,9.413962364E0,2.919841766E0
3.995497546E0,-3.221935749E0,9.337990761E0,2.958725214E0
3.997851087E0,-3.193221807E0,9.290133476E0,2.993421078E0
4.000204629E0,-3.144767046E0,9.180662155E0,2.994617462E0
4.002558171E0,-3.054438114E0,9.101100922E0,3.034697294E0
4.004911712E0,-2.964707375E0,9.049057007E0,3.069991350E0
4.007265254E0,-2.864806890E0,8.973683357E0,3.096312523E0
4.009618796E0,-2.736192703E0,8.922835350E0,3.103491068E0
4.011972337E0,-2.593221426E0,8.852247238E0,3.096312523E0
4.014325879E0,-2.469393015E0,8.819944382E0,3.083750248E0
4.016679421E0,-2.346162558E0,8.778069496E0,3.086143017E0
4.019032962E0,-2.245664120E0,8.755337715E0,3.077768087E0
4.021386504E0,-2.194218397E0,8.765507698E0,3.131606579E0
4.023740046E0,-2.137388945E0,8.742177963E0,3.156133175E0
4.026093587E0,-2.085345030E0,8.718847275E0,3.166900873E0
4.028447129E0,-2.080559254E0,8.690732002E0,3.191427231E0
4.030800671E0,-2.070389748E0,8.647063255E0,3.143570662E0
4.033154212E0,-2.050050735E0,8.622536659E0,3.101098061E0
4.035507754E0,-2.054836512E0,8.593822479E0,3.096312523E0
4.037861296E0,-2.058425665E0,8.589036942E0,3.058027267E0
4.040214837E0,-2.063211441E0,8.608179092E0,3.043670416E0
4.042568379E0,-2.124826431E0,8.612366676E0,3.042474031E0
4.044921921E0,-2.196012974E0,8.645268440E0,3.012563705E0
4.047275462E0,-2.277369022E0,8.659027100E0,3.020938635E0
4.049629004E0,-2.372483730E0,8.686544418E0,3.023929596E0
4.051982546E0,-2.452643156E0,8.662017822E0,3.022733212E0
4.054336087E0,-2.533401012E0,8.675776482E0,3.026322365E0
4.056689629E0,-2.590230465E0,8.656036377E0,3.011367321E0
4.059043171E0,-2.636890650E0,8.602197647E0,3.001796007E0
4.061396712E0,-2.687737942E0,8.529814720E0,2.986840963E0
4.063750254E0,-2.672782898E0,8.477172852E0,2.953939438E0
4.066103796E0,-2.733201742E0,8.428717613E0,2.943770170E0
4.068457337E0,-2.732603550E0,8.390432358E0,2.910868645E0
4.070810879E0,-2.788834810E0,8.361120224E0,2.909672260E0
4.073164421E0,-2.831307411E0,8.336593628E0,2.900100946E0
4.075517962E0,-2.864208698E0,8.274380684E0,2.938386202E0
4.077871504E0,-2.921636343E0,8.255238533E0,2.971287489E0
4.080225046E0,-2.916850805E0,8.226524353E0,2.995215654E0
4.082578587E0,-2.964108944E0,8.197810173E0,3.014358282E0
4.084932129E0,-2.968894720E0,8.169096947E0,3.019144058E0
4.087285671E0,-2.968296528E0,8.130811691E0,3.023929596E0
4.089639212E0,-2.987439156E0,8.149355888E0,3.009572744E0
4.091992754E0,-2.973082066E0,8.163712502E0,2.985644341E0
4.094346296E0,-2.944368362E0,8.187641144E0,2.952144861E0
4.096699837E0,-2.943770170E0,8.197212219E0,2.928216696E0
4.099053379E0,-2.947957516E0,8.182855606E0,2.899502754E0
4.101406921E0,-2.943171740E0,8.197212219E0,2.870789051E0
4.103760462E0,-2.980858803E0,8.210970879E0,2.840878725E0
4.106114004E0,-2.985046148E0,8.224729538E0,2.802593470E0
4.108467546E0,-3.003590584E0,8.233702660E0,2.758924484E0
4.110821087E0,-3.074178934E0,8.247461319E0,2.719442844E0
4.113174629E0,-3.096910715E0,8.246863365E0,2.690729141E0
4.115528171E0,-3.154338360E0,8.274978638E0,2.675175667E0
4.117881764E0,-3.191427231E0,8.283951759E0,2.621935368E0
4.120235254E0,-3.233899832E0,8.307282448E0,2.600998163E0
4.122588848E0,-3.276970625E0,8.344968796E0,2.595614433E0
4.124942389E0,-3.309871912E0,8.368298531E0,2.575873613E0
4.127295931E0,-3.310470104E0,8.430512428E0,2.570489645E0
4.129649473E0,-3.334996462E0,8.473583221E0,2.598605394E0
4.132003014E0,-3.360121250E0,8.569295883E0,2.626721144E0
4.134356556E0,-3.357728481E0,8.689535141E0,2.697907448E0
4.136710098E0,-3.364906788E0,8.795417786E0,2.778665304E0
4.139063639E0,-3.390031576E0,8.857631683E0,2.835494757E0
4.141417181E0,-3.391227961E0,8.938986778E0,2.868396044E0
4.143770723E0,-3.407379389E0,8.991629601E0,2.906083107E0
4.146124264E0,-3.413361549E0,9.053842545E0,2.958127022E0
4.148477806E0,-3.395415306E0,9.096913338E0,2.977269650E0
4.150831348E0,-3.371487141E0,9.116654396E0,3.001197815E0
4.153184889E0,-3.357728481E0,9.135796547E0,3.016152859E0
4.155538431E0,-3.311068296E0,9.141180992E0,3.040679455E0
4.157891973E0,-3.306880951E0,9.141778946E0,3.074178934E0
4.160245514E0,-3.302095175E0,9.127422333E0,3.088535786E0
4.162599056E0,-3.273979664E0,9.128020287E0,3.113062143E0
4.164952598E0,-3.270390272E0,9.095118523E0,3.185445070E0
4.167306139E0,-3.281157970E0,9.080761909E0,3.276372433E0
4.169659681E0,-3.272783279E0,9.071788788E0,3.353540897E0
4.172013223E0,-3.269792080E0,9.081958771E0,3.454039574E0
4.174366764E0,-3.290131092E0,9.092127800E0,3.549752474E0
4.176720306E0,-3.281756163E0,9.083154678E0,3.645465374E0
4.179073848E0,-3.254837036E0,9.088538170E0,3.722633839E0
4.181427389E0,-3.265604734E0,9.084351540E0,3.814159393E0
4.183780931E0,-3.243471146E0,9.128020287E0,3.881158352E0
4.186134473E0,-3.240479946E0,9.186046600E0,3.938585997E0
4.188488014E0,-3.245863914E0,9.229117393E0,3.966701746E0
4.190841556E0,-3.223730326E0,9.291330338E0,4.004986763E0
4.193195098E0,-3.270390272E0,9.300303459E0,3.980460405E0
4.195548639E0,-3.294916868E0,9.329017639E0,3.984647989E0
4.197902181E0,-3.342773199E0,9.337990761E0,4.012763500E0
4.200255723E0,-3.418745279E0,9.337391853E0,3.992424488E0
4.202609264E0,-3.489931822E0,9.360722542E0,3.981656790E0
4.204962806E0,-3.580260992E0,9.388239861E0,3.984647989E0
4.207316348E0,-3.665804386E0,9.440283775E0,3.978665829E0
4.209669889E0,-3.756133318E0,9.434301376E0,3.991826296E0
4.212023431E0,-3.884149313E0,9.433105469E0,3.984647989E0
4.214376973E0,-3.964907169E0,9.437292099E0,3.997808456E0
4.216730514E0,-4.054039955E0,9.431310654E0,3.963112593E0
4.219084056E0,-4.115056515E0,9.421140671E0,3.938585997E0
4.221437598E0,-4.190430641E0,9.415757179E0,3.913461447E0
4.223791139E0,-4.232903481E0,9.419346809E0,3.874577999E0
4.226144681E0,-4.284348965E0,9.381061554E0,3.869194269E0
4.228498223E0,-4.331008911E0,9.342177391E0,3.835096598E0
4.230851764E0,-4.372883320E0,9.332008362E0,3.810570002E0
4.233205306E0,-4.414757729E0,9.278767586E0,3.805784464E0
4.235558848E0,-4.414757729E0,9.254839897E0,3.796213150E0
4.237912389E0,-4.409373760E0,9.250054359E0,3.777070522E0
4.240265983E0,-4.385445595E0,9.245268822E0,3.758526087E0
4.242619525E0,-4.371088982E0,9.235696793E0,3.758526087E0
4.244973066E0,-4.333401680E0,9.231510162E0,3.773481369E0
4.247326608E0,-4.305285931E0,9.212965012E0,3.788436413E0
4.249680150E0,-4.262813568E0,9.232706070E0,3.789034605E0
4.252033691E0,-4.205984116E0,9.252447128E0,3.803989887E0
4.254387233E0,-4.135395527E0,9.253045082E0,3.805186272E0
4.256740775E0,-4.103092670E0,9.244071960E0,3.867997885E0
4.259094316E0,-4.031906128E0,9.239884377E0,3.864408493E0
4.261447858E0,-3.946362734E0,9.202795982E0,3.903890133E0
4.263801400E0,-3.847060680E0,9.127422333E0,3.944568157E0
4.266154941E0,-3.785445452E0,9.094520569E0,3.979264021E0
4.268508483E0,-3.681955814E0,9.053244591E0,4.048057556E0
4.270862025E0,-3.601796389E0,8.977870941E0,4.102494240E0
4.273215566E0,-3.512065411E0,8.916853905E0,4.161716938E0
4.275569108E0,-3.399004459E0,8.870791435E0,4.240679741E0
4.277922650E0,-3.333201885E0,8.828917503E0,4.332803726E0
4.280276191E0,-3.248854876E0,8.825327873E0,4.420739651E0
4.282629733E0,-3.165106058E0,8.798408508E0,4.508078098E0
4.284983275E0,-3.114258766E0,8.784649849E0,4.595416069E0
4.287336816E0,-3.020340443E0,8.738588333E0,4.702494621E0
4.289690358E0,-2.941377163E0,8.715856552E0,4.804787636E0
4.292043900E0,-2.880958557E0,8.721838951E0,4.872983456E0
4.294397441E0,-2.805584431E0,8.708678246E0,4.931607246E0
4.296750983E0,-2.773879766E0,8.704490662E0,5.014159679E0
4.299104525E0,-2.712264538E0,8.709874153E0,5.005186558E0
4.301458066E0,-2.651845694E0,8.701499939E0,5.082953453E0
4.303811608E0,-2.624328136E0,8.697312355E0,5.131408215E0
4.306165150E0,-2.605783939E0,8.706883430E0,5.150550842E0
4.308518691E0,-2.596212626E0,8.717052460E0,5.174479008E0
4.310872233E0,-2.582453728E0,8.731410027E0,5.193621635E0
4.313225775E0,-2.611765862E0,8.750552177E0,5.203192711E0
4.315579316E0,-2.630908489E0,8.802596092E0,5.192425251E0
4.317932858E0,-2.659622431E0,8.868997574E0,5.167898655E0
4.320286400E0,-2.712264538E0,8.935398102E0,5.142774105E0
4.322639941E0,-2.784049034E0,9.053842545E0,5.121238708E0
4.324993483E0,-2.870190859E0,9.192028046E0,5.109872818E0
4.327347025E0,-2.971287489E0,9.329017639E0,5.087738991E0
4.329700566E0,-3.071786165E0,9.490532875E0,5.051846981E0
4.332054108E0,-3.191427231E0,9.647262573E0,5.048855782E0
4.334407650E0,-3.311666489E0,9.813564301E0,5.041079044E0
4.336761191E0,-3.479164124E0,9.955338478E0,5.018347263E0
4.339114733E0,-3.598805189E0,1.009771156E1,4.996811867E0
4.341468275E0,-3.779463291E0,1.020538902E1,4.964509010E0
4.343821816E0,-3.927220106E0,1.030409241E1,4.951946259E0
4.346175358E0,-4.064209461E0,1.037886810E1,4.892126083E0
4.348528900E0,-4.197010994E0,1.044467068E1,4.850251675E0
4.350882441E0,-4.329214573E0,1.049551868E1,4.780859470E0
4.353235983E0,-4.442873478E0,1.049910736E1,4.770092010E0
4.355589525E0,-4.536791801E0,1.046441174E1,4.696512699E0
4.357943066E0,-4.634897232E0,1.042971611E1,4.637888432E0
4.360296608E0,-4.713860512E0,1.033280659E1,4.603790760E0
4.362650150E0,-4.745565414E0,1.025085258E1,4.566103935E0
4.365003691E0,-4.782055855E0,1.012164021E1,4.556532383E0
4.367357233E0,-4.823332310E0,9.992427826E0,4.557130814E0
4.369710775E0,-4.855037212E0,9.839286804E0,4.557728767E0
4.372064316E0,-4.858626366E0,9.709476471E0,4.572684288E0
4.374417858E0,-4.861617565E0,9.537193298E0,4.578666210E0
4.376771452E0,-4.860421181E0,9.351150513E0,4.604389191E0
4.379124941E0,-4.843671322E0,9.178867340E0,4.581656933E0
4.381478535E0,-4.837090969E0,9.040681839E0,4.558925152E0
4.383832025E0,-4.815555573E0,8.839685440E0,4.503292084E0
4.386185618E0,-4.789832592E0,8.681758881E0,4.475774765E0
4.388539160E0,-4.777270317E0,8.470592499E0,4.424927235E0
4.390892702E0,-4.755734921E0,8.298907280E0,4.378267288E0
4.393246243E0,-4.743771076E0,8.145766258E0,4.331607342E0
4.395599785E0,-4.731806755E0,7.987242222E0,4.251447678E0
4.397953327E0,-4.724030018E0,7.862815380E0,4.166502476E0
4.400306868E0,-4.688137531E0,7.743174076E0,4.081557274E0
4.402660410E0,-4.681557655E0,7.670791149E0,3.981058598E0
4.405013952E0,-4.640879631E0,7.560721397E0,3.872185230E0
4.407367493E0,-4.600201607E0,7.478767395E0,3.763311863E0
4.409721035E0,-4.550550461E0,7.435696602E0,3.658027649E0
4.412074577E0,-4.526023865E0,7.444669247E0,3.605983734E0
4.414428118E0,-4.486542225E0,7.430312634E0,3.539582968E0
4.416781660E0,-4.462016106E0,7.402196884E0,3.511467218E0
4.419135202E0,-4.442873478E0,7.383054256E0,3.511467218E0
4.421488743E0,-4.409972191E0,7.387839794E0,3.507279873E0
4.423842285E0,-4.424329281E0,7.406982422E0,3.511467218E0
4.426195827E0,-4.405186653E0,7.388438225E0,3.531208038E0
4.428549368E0,-4.405784607E0,7.393223763E0,3.540779352E0
4.430902910E0,-4.377070904E0,7.369295597E0,3.546163082E0
4.433256452E0,-4.353740692E0,7.350750923E0,3.570689678E0
4.435609993E0,-4.314857483E0,7.293921471E0,3.581457376E0
4.437963535E0,-4.267001152E0,7.246663570E0,3.577269793E0
4.440317077E0,-4.223930359E0,7.180262566E0,3.592823267E0
4.442670618E0,-4.118646145E0,7.094718933E0,3.580859184E0
4.445024160E0,-4.037290096E0,6.985845566E0,3.573082447E0
4.447377702E0,-3.936193228E0,6.881757736E0,3.561118364E0
4.449731243E0,-3.840480328E0,6.758527756E0,3.568296671E0
4.452084785E0,-3.725026608E0,6.644270420E0,3.556332588E0
4.454438327E0,-3.614956856E0,6.549753666E0,3.548556089E0
4.456791868E0,-3.486342669E0,6.460621357E0,3.551547050E0
4.459145410E0,-3.374478102E0,6.340980053E0,3.496512175E0
4.461498952E0,-3.230908871E0,6.279963017E0,3.451048374E0
4.463852493E0,-3.126222849E0,6.238088608E0,3.428914785E0
4.466206035E0,-3.030509949E0,6.166902065E0,3.416352510E0
4.468559577E0,-2.925225735E0,6.139384747E0,3.389433384E0
4.470913118E0,-2.825325251E0,6.159125328E0,3.357130051E0
4.473266660E0,-2.754138947E0,6.159723759E0,3.338585854E0
4.475620202E0,-2.711666346E0,6.169294834E0,3.324826956E0
4.477973743E0,-2.617149830E0,6.218348026E0,3.335594654E0
4.480327285E0,-2.580659151E0,6.266802311E0,3.359523058E0
4.482680827E0,-2.509472847E0,6.320042610E0,3.345764160E0
4.485034368E0,-2.454437733E0,6.392425537E0,3.389433384E0
4.487387910E0,-2.403590441E0,6.474977970E0,3.418147087E0
4.489741452E0,-2.352144718E0,6.556334019E0,3.428316593E0
4.492094993E0,-2.306680918E0,6.667002201E0,3.457030535E0
4.494448535E0,-2.254637241E0,6.777669907E0,3.451646566E0
4.496802077E0,-2.204387903E0,6.878767014E0,3.495315790E0
4.499155618E0,-2.178066730E0,6.998407841E0,3.542573929E0
4.501509160E0,-2.146960020E0,7.099504948E0,3.609572887E0
4.503862702E0,-2.143969059E0,7.210172653E0,3.666402578E0
4.506216243E0,-2.169692039E0,7.324429989E0,3.703491211E0
4.508569785E0,-2.166700840E0,7.411170006E0,3.765704632E0
4.510923327E0,-2.144567251E0,7.511668682E0,3.789034605E0
4.513276868E0,-2.164906263E0,7.579265594E0,3.831507206E0
4.515630410E0,-2.179861546E0,7.651050568E0,3.845266104E0
4.517983952E0,-2.195414782E0,7.727620602E0,3.859024763E0
4.520337493E0,-2.210369825E0,7.789236069E0,3.872783422E0
4.522691035E0,-2.210968018E0,7.856235027E0,3.876971006E0
4.525044577E0,-2.239681959E0,7.904091358E0,3.852444410E0
4.527398118E0,-2.239681959E0,7.951349735E0,3.827918053E0
4.529751660E0,-2.268994093E0,7.999206066E0,3.836891174E0
4.532105254E0,-2.283949137E0,8.070392609E0,3.826123476E0
4.534458796E0,-2.322234392E0,8.151150703E0,3.772284985E0
4.536812337E0,-2.350350142E0,8.193622589E0,3.752544165E0
4.539165827E0,-2.422134638E0,8.264809608E0,3.731008768E0
4.541519421E0,-2.480160713E0,8.359924316E0,3.749552965E0
4.543872962E0,-2.566900492E0,8.449654579E0,3.776472330E0
4.546226504E0,-2.643470764E0,8.516056061E0,3.784249067E0
4.548580046E0,-2.743969440E0,8.572287560E0,3.796811342E0
4.550933587E0,-2.868396044E0,8.648259163E0,3.818346739E0
4.553287129E0,-2.954537868E0,8.709874153E0,3.850051641E0
4.555640671E0,-3.045464993E0,8.728418350E0,3.887140274E0
4.557994212E0,-3.168695450E0,8.727222443E0,3.909274101E0
4.560347754E0,-3.264408350E0,8.769695282E0,3.917050600E0
4.562701296E0,-3.354139090E0,8.768498421E0,3.925425529E0
4.565054837E0,-3.468994617E0,8.791828156E0,3.928416491E0
4.567408379E0,-3.568894863E0,8.757132530E0,3.960719585E0
4.569761921E0,-3.692723513E0,8.742177963E0,4.036093712E0
4.572115462E0,-3.782454491E0,8.698508263E0,4.044468403E0
4.574469004E0,-3.863212109E0,8.683553696E0,4.062414646E0
4.576822546E0,-3.924229145E0,8.596215248E0,4.081557274E0
4.579176087E0,-3.976273060E0,8.534002304E0,4.100699902E0
4.581529629E0,-4.036093712E0,8.461619377E0,4.061816216E0
4.583883171E0,-4.054637909E0,8.379665375E0,4.061816216E0
4.586236712E0,-4.096512318E0,8.298309326E0,4.076173306E0
4.588590254E0,-4.157529354E0,8.264211655E0,4.046861172E0
4.590943796E0,-4.189234257E0,8.177471161E0,4.037888050E0
4.593297337E0,-4.222135544E0,8.120043755E0,4.042075634E0
4.595650879E0,-4.278367043E0,8.053044319E0,4.056432724E0
4.598004421E0,-4.315455437E0,8.018946648E0,4.022335052E0
4.600357962E0,-4.348356724E0,7.975277901E0,4.027120590E0
4.602711504E0,-4.400400639E0,7.970492363E0,4.036093712E0
4.605065046E0,-4.461417675E0,7.941180229E0,4.030709743E0
4.607418587E0,-4.490131855E0,7.935796261E0,4.044468403E0
4.609772129E0,-4.524229527E0,7.907082558E0,4.082753658E0
4.612125671E0,-4.562514782E0,7.907082558E0,4.110869408E0
4.614479212E0,-4.582853794E0,7.902296543E0,4.177868366E0
4.616832754E0,-4.606781960E0,7.916653633E0,4.201198578E0
4.619186296E0,-4.606781960E0,7.897511005E0,4.215555191E0
4.621539837E0,-4.612165451E0,7.912466049E0,4.253840446E0
4.623893379E0,-4.641477585E0,7.950153351E0,4.267599106E0
4.626246921E0,-4.646263599E0,7.974081516E0,4.258028030E0
4.628600462E0,-4.655834675E0,7.964509964E0,4.253242016E0
4.630954004E0,-4.655834675E0,7.940581799E0,4.301098824E0
4.633307546E0,-4.665405750E0,7.926225185E0,4.286741734E0
4.635661087E0,-4.674977303E0,7.902296543E0,4.320241451E0
4.638014629E0,-4.665405750E0,7.869395256E0,4.349553585E0
4.640368171E0,-4.674977303E0,7.835896015E0,4.368695736E0
4.642721712E0,-4.661218643E0,7.807780266E0,4.421936035E0
4.645075254E0,-4.614558697E0,7.794021606E0,4.451248169E0
4.647428796E0,-4.600799561E0,7.756334782E0,4.509274483E0
4.649782337E0,-4.554139614E0,7.756932735E0,4.557728767E0
4.652135879E0,-4.511667252E0,7.762316704E0,4.597210407E0
4.654489421E0,-4.479363918E0,7.782057285E0,4.645066738E0
4.656842962E0,-4.442275047E0,7.816154957E0,4.683950424E0
4.659196504E0,-4.395615101E0,7.850253105E0,4.713262558E0
4.661550046E0,-4.335196495E0,7.879564762E0,4.761716843E0
4.663903587E0,-4.312464714E0,7.870592117E0,4.819743156E0
4.666257129E0,-4.265804768E0,7.875975609E0,4.859224796E0
4.668610671E0,-4.228715897E0,7.881958008E0,4.917250633E0
4.670964212E0,-4.163511276E0,7.906484127E0,4.965705395E0
4.673317754E0,-4.122235298E0,7.945367813E0,5.047659397E0
4.675671296E0,-4.080958843E0,7.980063438E0,5.096114159E0
4.678024837E0,-4.034298897E0,7.999804497E0,5.134997368E0
4.680378379E0,-3.964308977E0,8.062616348E0,5.159523964E0
4.682731921E0,-3.899104595E0,8.087141991E0,5.193621635E0
4.685085462E0,-3.847658873E0,8.126026154E0,5.222933769E0
4.687439004E0,-3.786641836E0,8.164909363E0,5.223531723E0
4.689792546E0,-3.716651678E0,8.213961601E0,5.272584915E0
4.692146139E0,-3.678366661E0,8.228319168E0,5.263013363E0
4.694499629E0,-3.617349625E0,8.243273735E0,5.278566837E0
4.696853223E0,-3.561118364E0,8.272585869E0,5.288736343E0
4.699206712E0,-3.541975737E0,8.282156944E0,5.283950806E0
4.701560254E0,-3.494717360E0,8.301898003E0,5.284548759E0
4.703913796E0,-3.485744476E0,8.307282448E0,5.303691387E0
4.706267337E0,-3.467798233E0,8.369495392E0,5.308476925E0
4.708620931E0,-3.434896946E0,8.402995110E0,5.303691387E0
4.710974473E0,-3.416352510E0,8.417949677E0,5.337789059E0
4.713328014E0,-3.373281717E0,8.441878319E0,5.337789059E0
4.715681556E0,-3.345764160E0,8.480761528E0,5.357530117E0
4.718035098E0,-3.322434187E0,8.490332603E0,5.362315655E0
4.720388587E0,-3.289532900E0,8.529216766E0,5.352744102E0
4.722742181E0,-3.256631613E0,8.557929993E0,5.353342533E0
4.725095723E0,-3.227917671E0,8.605786324E0,5.324628353E0
4.727449264E0,-3.214159012E0,8.615358353E0,5.324628353E0
4.729802806E0,-3.199203968E0,8.615358353E0,5.295914650E0
4.732156348E0,-3.175275564E0,8.630312920E0,5.282155991E0
4.734509889E0,-3.137588739E0,8.635098457E0,5.287539959E0
4.736863431E0,-3.118446112E0,8.639883995E0,5.263611794E0
4.739216973E0,-3.080160856E0,8.621339798E0,5.245067120E0
4.741570514E0,-3.074777126E0,8.606983185E0,5.230710506E0
4.743924056E0,-3.036491871E0,8.621339798E0,5.197809219E0
4.746277598E0,-2.983849764E0,8.621339798E0,5.145765305E0
4.748631139E0,-2.964108944E0,8.611768723E0,5.102694511E0
4.750984681E0,-2.972483873E0,8.606983185E0,5.050052166E0
4.753338223E0,-2.957528830E0,8.583054543E0,5.026721954E0
4.755691764E0,-2.947957516E0,8.573483467E0,5.017150879E0
4.758045306E0,-2.938984394E0,8.592626572E0,5.021936417E0
4.760398848E0,-2.944368362E0,8.606983185E0,5.060221672E0
4.762752389E0,-2.959323406E0,8.606983185E0,5.103292465E0
4.765105931E0,-2.992822886E0,8.611768723E0,5.126622677E0
4.767459473E0,-3.002992392E0,8.592626572E0,5.188836098E0
4.769813014E0,-3.037090063E0,8.606983185E0,5.236093998E0
4.772166556E0,-3.032902718E0,8.598010063E0,5.284548759E0
4.774520098E0,-3.052045345E0,8.578866959E0,5.307878971E0
4.776873639E0,-3.037688255E0,8.578866959E0,5.294120312E0
4.779227181E0,-3.047259569E0,8.583653450E0,5.307878971E0
4.781580723E0,-3.037688255E0,8.578866959E0,5.289334297E0
4.783934264E0,-2.994617462E0,8.593224525E0,5.270191669E0
4.786287806E0,-2.975475073E0,8.579465866E0,5.246861935E0
4.788641348E0,-2.965305567E0,8.569295883E0,5.213362217E0
4.790994889E0,-2.950948477E0,8.564510345E0,5.194818020E0
4.793348431E0,-2.964707375E0,8.545368195E0,5.194818020E0
4.795701973E0,-2.988037348E0,8.540582657E0,5.189434052E0
4.798055514E0,-3.026322365E0,8.531010628E0,5.217549801E0
4.800409056E0,-3.079562664E0,8.549555779E0,5.245665550E0
4.802762598E0,-3.117249727E0,8.548956871E0,5.259424210E0
4.805116139E0,-3.164507866E0,8.544171333E0,5.258825779E0
4.807469681E0,-3.197409153E0,8.543573380E0,5.234299660E0
4.809823223E0,-3.230310678E0,8.557332039E0,5.209773064E0
4.812176764E0,-3.281157970E0,8.523234367E0,5.151747227E0
4.814530306E0,-3.308675528E0,8.517850876E0,5.088935375E0
4.816883848E0,-3.316452265E0,8.474181175E0,5.021936417E0
4.819237389E0,-3.333800077E0,8.411369324E0,4.940580368E0
4.821590931E0,-3.364906788E0,8.334200859E0,4.859224796E0
4.823944473E0,-3.382254839E0,8.261817932E0,4.801796913E0
4.826298014E0,-3.389433384E0,8.194221497E0,4.710869789E0
4.828651556E0,-3.415754318E0,8.083553314E0,4.629513741E0
4.831005098E0,-3.437887907E0,7.996813297E0,4.572684288E0
4.833358639E0,-3.421736479E0,7.934599876E0,4.482355118E0
4.835712181E0,-3.419941664E0,7.867600918E0,4.439284325E0
4.838065723E0,-3.395415306E0,7.814958572E0,4.401597023E0
4.840419264E0,-3.388834953E0,7.781459332E0,4.363910198E0
4.842772806E0,-3.369692564E0,7.776673794E0,4.354339123E0
4.845126348E0,-3.340380430E0,7.743174076E0,4.321437836E0
4.847479889E0,-3.326621771E0,7.757531166E0,4.316651821E0
4.849833431E0,-3.270390272E0,7.772486210E0,4.341776848E0
4.852186973E0,-3.251846075E0,7.801798344E0,4.365705013E0
4.854540514E0,-3.224328518E0,7.868797302E0,4.380061626E0
4.856894056E0,-3.202194929E0,7.922037601E0,4.427918434E0
4.859247598E0,-3.170490026E0,7.960920811E0,4.504488468E0
4.861601139E0,-3.134597778E0,8.018946648E0,4.591228485E0
4.863954681E0,-3.145365477E0,8.053044319E0,4.652843475E0
4.866308223E0,-3.104089260E0,8.082356453E0,4.710869789E0
4.868661764E0,-3.086143017E0,8.082955360E0,4.797609329E0
4.871015306E0,-3.058625460E0,8.078767776E0,4.850849628E0
4.873368848E0,-3.011965513E0,8.051250458E0,4.904688358E0
4.875722389E0,-3.007778168E0,8.065607071E0,4.953142643E0
4.878075931E0,-2.979064226E0,8.027919769E0,4.958526611E0
4.880429473E0,-2.945564747E0,7.975277901E0,4.963910580E0
4.882783014E0,-2.907877684E0,7.956733704E0,4.969294548E0
4.885136556E0,-2.869592667E0,7.933403492E0,4.984847546E0
4.887490098E0,-2.822334290E0,7.914859295E0,4.980660439E0
4.889843639E0,-2.803789854E0,7.910073280E0,5.014758110E0
4.892197181E0,-2.803789854E0,7.896314621E0,5.033900738E0
4.894550775E0,-2.794218540E0,7.920242786E0,5.024329185E0
4.896904316E0,-2.809173822E0,7.929814339E0,5.038087845E0
4.899257858E0,-2.842075109E0,7.934001446E0,5.042275429E0
4.901611400E0,-2.861815929E0,7.957930088E0,5.056632519E0
4.903964941E0,-2.895315409E0,7.957331657E0,5.079962254E0
4.906318483E0,-2.952743053E0,7.990831375E0,5.083551884E0
4.908672025E0,-2.995813847E0,7.999804497E0,5.102096081E0
4.911025566E0,-3.053241730E0,8.014161110E0,5.154139996E0
4.913379108E0,-3.120240688E0,8.023134232E0,5.172086239E0
4.915732650E0,-3.211168051E0,8.051250458E0,5.213960648E0
4.918086191E0,-3.282952785E0,8.050651550E0,5.255835056E0
