"Time (s)","Gyroscope x (rad/s)","Gyroscope y (rad/s)","Gyroscope z (rad/s)"
1.277134800E-2,8.857285231E-2,-5.665608495E-2,-4.520269856E-2
1.512494100E-2,8.857285231E-2,-5.665608495E-2,-4.520269856E-2
1.747848300E-2,8.857285231E-2,-5.665608495E-2,-4.520269856E-2
1.983202500E-2,3.023693897E-2,-1.333174109E-1,-9.009997360E-3
2.218556600E-2,2.657185495E-2,-1.417165697E-1,-9.009997360E-3
2.453910800E-2,2.290677279E-2,-1.513374150E-1,-9.009997360E-3
2.689265000E-2,2.183778957E-2,-1.598892659E-1,-1.145338640E-2
2.924619100E-2,1.572931744E-2,-1.658450365E-1,-1.267508045E-2
3.159973300E-2,1.068982668E-2,-1.682884246E-1,-1.282779220E-2
3.395327500E-2,3.359660041E-3,-1.623326540E-1,-1.542389300E-2
3.630681600E-2,-5.497625098E-3,-1.539335102E-1,-1.435491070E-2
3.866035800E-2,-1.175880991E-2,-1.383569092E-1,-1.450762246E-2
4.101390000E-2,-2.061609551E-2,-1.217113137E-1,-1.466033421E-2
4.336744100E-2,-2.947338112E-2,-1.061347127E-1,-1.236965694E-2
4.572103500E-2,-3.939964995E-2,-8.933641016E-2,-1.130067464E-2
4.807457700E-2,-4.581354558E-2,-7.375980914E-2,-9.009997360E-3
5.042811800E-2,-5.207473040E-2,-6.291726977E-2,-6.719320081E-3
5.278166000E-2,-5.726693198E-2,-4.978405312E-2,-5.650337320E-3
5.513520200E-2,-6.093201414E-2,-4.260659590E-2,-1.068982668E-2
5.748874300E-2,-6.093201414E-2,-3.298575059E-2,-1.068982668E-2
5.984228500E-2,-6.215370819E-2,-2.458660305E-2,-1.313321572E-2
6.219582700E-2,-6.108472496E-2,-1.618745178E-2,-1.191152167E-2
6.454936800E-2,-6.230641901E-2,-1.267508045E-2,-1.206423342E-2
6.690291000E-2,-6.474980712E-2,-9.009997360E-3,-1.450762246E-2
6.925645200E-2,-6.597150117E-2,-6.719320081E-3,-1.572931744E-2
7.160999300E-2,-6.474980712E-2,-4.275931045E-3,-1.817270555E-2
7.396353500E-2,-6.597150117E-2,-3.206948051E-3,-2.183778957E-2
7.631707700E-2,-6.597150117E-2,4.581354442E-4,-2.550287358E-2
7.867061800E-2,-6.719319522E-2,2.748812549E-3,-2.809897438E-2
8.102421200E-2,-6.581879407E-2,5.192201585E-3,-2.932066843E-2
8.337775400E-2,-6.337540597E-2,7.635590620E-3,-3.405473381E-2
8.573129600E-2,-6.337540597E-2,6.413896102E-3,-3.405473381E-2
8.808483700E-2,-6.093201414E-2,6.413896102E-3,-3.405473381E-2
9.043837900E-2,-5.833591148E-2,7.635590620E-3,-3.405473381E-2
9.279192100E-2,-5.711421743E-2,1.236965694E-2,-3.527642787E-2
9.514546200E-2,-5.589252338E-2,1.359135192E-2,-3.649812192E-2
9.749900400E-2,-5.589252338E-2,1.603474095E-2,-3.527642787E-2
9.985254600E-2,-5.360184610E-2,1.847812906E-2,-3.283303976E-2
1.022060870E-1,-5.238015205E-2,2.092151903E-2,-2.916795574E-2
1.045596290E-1,-5.360184610E-2,2.321219631E-2,-2.916795574E-2
1.069131710E-1,-5.115845799E-2,2.321219631E-2,-2.916795574E-2
1.092667120E-1,-5.238015205E-2,2.565558441E-2,-2.794626169E-2
1.116202540E-1,-5.375456065E-2,2.443389036E-2,-2.428117767E-2
1.139738480E-1,-5.497625470E-2,2.687728032E-2,-2.428117767E-2
1.163273890E-1,-5.497625470E-2,2.932066843E-2,-2.428117767E-2
1.186809310E-1,-5.375456065E-2,2.809897438E-2,-2.305948362E-2
1.210344730E-1,-5.497625470E-2,2.321219631E-2,-2.305948362E-2
1.233880140E-1,-5.619794875E-2,2.092151903E-2,-2.305948362E-2
1.257415560E-1,-5.497625470E-2,2.092151903E-2,-2.183778957E-2
1.280950980E-1,-5.238015205E-2,1.725643501E-2,-2.305948362E-2
1.304486390E-1,-5.115845799E-2,1.496575773E-2,-2.290677279E-2
1.328021810E-1,-5.238015205E-2,1.496575773E-2,-2.168507688E-2
1.351557230E-1,-5.375456065E-2,1.496575773E-2,-2.061609551E-2
1.375092640E-1,-5.497625470E-2,1.496575773E-2,-2.061609551E-2
1.398628060E-1,-5.497625470E-2,1.496575773E-2,-2.183778957E-2
1.422163480E-1,-5.619794875E-2,1.374406368E-2,-2.061609551E-2
1.445698890E-1,-5.619794875E-2,1.496575773E-2,-2.183778957E-2
1.469234830E-1,-5.741964281E-2,1.374406368E-2,-2.183778957E-2
1.492770250E-1,-5.741964281E-2,1.374406368E-2,-2.305948362E-2
1.516305660E-1,-5.864133686E-2,1.481304597E-2,-2.183778957E-2
1.539841080E-1,-5.864133686E-2,1.007897966E-2,-2.183778957E-2
1.563376500E-1,-5.864133686E-2,8.857285604E-3,-2.183778957E-2
1.586911910E-1,-5.864133686E-2,8.857285604E-3,-2.183778957E-2
1.610447330E-1,-5.741964281E-2,1.130067464E-2,-2.183778957E-2
1.633982750E-1,-5.497625470E-2,1.007897966E-2,-1.939439960E-2
1.657518160E-1,-5.360184610E-2,8.857285604E-3,-2.046338283E-2
1.681053580E-1,-5.115845799E-2,1.252236869E-2,-1.924168877E-2
1.704589000E-1,-5.115845799E-2,1.007897966E-2,-2.168507688E-2
1.728124410E-1,-5.115845799E-2,8.857285604E-3,-1.924168877E-2
1.751659830E-1,-4.993676394E-2,6.566607859E-3,-1.924168877E-2
1.775195250E-1,-5.115845799E-2,4.123218823E-3,-1.924168877E-2
1.798731180E-1,-5.131116882E-2,7.788302377E-3,-1.679829881E-2
1.822266600E-1,-5.131116882E-2,7.788302377E-3,-1.557660475E-2
1.845802020E-1,-5.131116882E-2,9.009997360E-3,-1.435491070E-2
1.869337430E-1,-5.131116882E-2,9.009997360E-3,-1.191152167E-2
1.892872850E-1,-5.253286287E-2,1.023169141E-2,-1.435491070E-2
1.916408270E-1,-5.131116882E-2,9.009997360E-3,-1.313321572E-2
1.939943680E-1,-5.253286287E-2,9.009997360E-3,-1.191152167E-2
1.963479100E-1,-5.131116882E-2,1.145338640E-2,-1.191152167E-2
1.987014520E-1,-5.253286287E-2,7.788302377E-3,-1.191152167E-2
2.010549930E-1,-5.253286287E-2,9.009997360E-3,-1.435491070E-2
2.034085350E-1,-5.253286287E-2,9.009997360E-3,-1.679829881E-2
2.057620770E-1,-5.238015205E-2,5.344913341E-3,-1.801999472E-2
2.081156180E-1,-5.115845799E-2,4.123218823E-3,-1.801999472E-2
2.104691600E-1,-4.993676394E-2,2.901524538E-3,-1.801999472E-2
2.128227540E-1,-5.360184610E-2,4.123218823E-3,-1.924168877E-2
2.151762430E-1,-5.238015205E-2,5.344913341E-3,-1.801999472E-2
2.175298370E-1,-5.115845799E-2,6.566607859E-3,-1.924168877E-2
2.198833790E-1,-5.360184610E-2,7.788302377E-3,-1.924168877E-2
2.222369210E-1,-5.619794875E-2,1.252236869E-2,-2.061609551E-2
2.245904620E-1,-5.619794875E-2,1.496575773E-2,-2.183778957E-2
2.269440040E-1,-5.741964281E-2,2.092151903E-2,-2.428117767E-2
2.292975460E-1,-5.741964281E-2,2.321219631E-2,-2.550287358E-2
2.316510870E-1,-5.986303091E-2,2.794626169E-2,-3.054236248E-2
2.340046290E-1,-6.352811307E-2,3.038965166E-2,-3.420744836E-2
2.363581710E-1,-6.230641901E-2,3.161134571E-2,-3.665083647E-2
2.387117120E-1,-6.093201414E-2,2.916795574E-2,-3.787253052E-2
2.410652540E-1,-5.971032009E-2,2.672456764E-2,-3.909422457E-2
2.434187960E-1,-6.093201414E-2,2.672456764E-2,-4.275930673E-2
2.457723370E-1,-6.077930331E-2,2.428117767E-2,-4.398100078E-2
2.481258790E-1,-6.337540597E-2,2.305948362E-2,-4.275930673E-2
2.504794730E-1,-6.337540597E-2,2.199050039E-2,-4.153761268E-2
2.528330140E-1,-6.581879407E-2,2.305948362E-2,-4.275930673E-2
2.551865560E-1,-6.581879407E-2,2.199050039E-2,-4.153761268E-2
2.575400980E-1,-6.826218218E-2,1.832541823E-2,-4.153761268E-2
2.598936390E-1,-6.704048812E-2,1.359135192E-2,-3.787253052E-2
2.622471810E-1,-6.826218218E-2,1.114796288E-2,-3.420744836E-2
2.646007230E-1,-6.963659078E-2,8.857285604E-3,-3.054236248E-2
2.669542640E-1,-6.963659078E-2,5.192201585E-3,-2.809897438E-2
2.693078060E-1,-6.978929788E-2,5.192201585E-3,-2.321219631E-2
2.716613480E-1,-7.101099193E-2,5.192201585E-3,-1.954711229E-2
2.740148890E-1,-7.345438004E-2,5.192201585E-3,-1.954711229E-2
2.763684310E-1,-7.467607409E-2,3.970507067E-3,-1.832541823E-2
2.787219730E-1,-7.360709459E-2,2.901524538E-3,-1.588202827E-2
2.810755140E-1,-7.345438004E-2,4.581354442E-4,-1.710372418E-2
2.834291080E-1,-7.238540053E-2,4.581354442E-4,-1.343864016E-2
2.857826500E-1,-7.360709459E-2,1.679830020E-3,-1.343864016E-2
2.881361910E-1,-7.238540053E-2,1.679830020E-3,-1.099525020E-2
2.904897330E-1,-7.238540053E-2,1.679830020E-3,-1.343864016E-2
2.928432750E-1,-6.978929788E-2,4.581354442E-4,-1.221694518E-2
2.951968160E-1,-6.978929788E-2,-7.635590737E-4,-1.466033421E-2
2.975503580E-1,-6.856760383E-2,-1.985253533E-3,-1.817270555E-2
2.999039000E-1,-6.474980712E-2,-6.719320081E-3,-1.939439960E-2
3.022574410E-1,-6.215370819E-2,-9.162709117E-3,-2.061609551E-2
3.046109830E-1,-6.215370819E-2,-1.160609815E-2,-2.428117767E-2
3.069645250E-1,-6.200099736E-2,-1.389677543E-2,-2.794626169E-2
3.093180660E-1,-5.955760926E-2,-1.511846948E-2,-3.283303976E-2
3.116716080E-1,-5.818320066E-2,-1.527118124E-2,-3.756710514E-2
3.140251500E-1,-5.803048983E-2,-1.404948719E-2,-4.260659590E-2
3.163786910E-1,-5.803048983E-2,-1.282779220E-2,-4.382828996E-2
3.187322330E-1,-5.803048983E-2,-1.053711493E-2,-5.115845799E-2
3.210858270E-1,-5.787777901E-2,-7.024743594E-3,-5.848862603E-2
3.234393680E-1,-5.787777901E-2,-3.359660041E-3,-6.337540597E-2
3.257929100E-1,-5.650337040E-2,4.886778072E-3,-7.192726433E-2
3.281464520E-1,-5.772506446E-2,1.084253844E-2,-7.818844914E-2
3.304999930E-1,-5.635065958E-2,2.168507688E-2,-8.551861346E-2
3.328535350E-1,-5.512896553E-2,3.481829539E-2,-9.162709117E-2
3.352070770E-1,-5.772506446E-2,5.268557742E-2,-9.788827598E-2
3.375606180E-1,-5.635065958E-2,7.070557028E-2,-1.065928489E-1
3.399141600E-1,-5.772506446E-2,9.101624042E-2,-1.139230132E-1
3.422677020E-1,-5.894676223E-2,1.101052165E-1,-1.201841980E-1
3.446212430E-1,-6.139015034E-2,1.340809762E-1,-1.313321590E-1
3.469747850E-1,-6.276455522E-2,1.580567211E-1,-1.388150454E-1
3.493283270E-1,-6.398624927E-2,1.806580722E-1,-1.475196183E-1
3.516818680E-1,-6.658235192E-2,2.058555335E-1,-1.550024897E-1
3.540354620E-1,-6.902574003E-2,2.310529798E-1,-1.600419879E-1
3.563889520E-1,-7.040014863E-2,2.548760176E-1,-1.685938388E-1
3.587425460E-1,-6.917845458E-2,2.751866877E-1,-1.748550236E-1
3.610960870E-1,-6.795676053E-2,2.956500649E-1,-1.797417998E-1
3.634496290E-1,-6.810946763E-2,3.135173619E-1,-1.835595965E-1
3.658031710E-1,-6.810946763E-2,3.290939629E-1,-1.860029846E-1
3.681567120E-1,-7.070557028E-2,3.471139669E-1,-1.861557066E-1
3.705102540E-1,-7.345438004E-2,3.616215885E-1,-1.814216375E-1
3.728637960E-1,-7.360709459E-2,3.759764731E-1,-1.801999360E-1
3.752173370E-1,-7.360709459E-2,3.868190348E-1,-1.777565479E-1
3.775708790E-1,-7.498150319E-2,3.975088596E-1,-1.742441803E-1
3.799244210E-1,-7.635590434E-2,4.048390090E-1,-1.730224788E-1
3.822779620E-1,-7.895200700E-2,4.132381678E-1,-1.693574041E-1
3.846315040E-1,-7.773031294E-2,4.204156399E-1,-1.693574041E-1
3.869850460E-1,-8.032641560E-2,4.300364852E-1,-1.670667231E-1
3.893385870E-1,-8.032641560E-2,4.407263100E-1,-1.682884246E-1
3.916921290E-1,-7.910472155E-2,4.515688419E-1,-1.719534993E-1
3.940456710E-1,-8.170082420E-2,4.622586668E-1,-1.745496094E-1
3.963992120E-1,-8.292251825E-2,4.766135812E-1,-1.782146841E-1
3.987528060E-1,-8.429691941E-2,4.874561131E-1,-1.808107942E-1
4.011063480E-1,-8.551861346E-2,5.018110275E-1,-1.844758689E-1
4.034598890E-1,-8.551861346E-2,5.173876286E-1,-1.895153672E-1
4.058134310E-1,-8.811471611E-2,5.376983285E-1,-1.933331639E-1
4.081669730E-1,-8.948912472E-2,5.557183027E-1,-1.957765520E-1
4.105205140E-1,-9.330692142E-2,5.748072863E-1,-1.983726472E-1
4.128740560E-1,-9.712471068E-2,5.940489769E-1,-1.997470558E-1
4.152275980E-1,-9.849911928E-2,6.119162440E-1,-1.998997629E-1
4.175811390E-1,-1.010952219E-1,6.311579347E-1,-1.986780763E-1
4.199346810E-1,-1.036913246E-1,6.467345357E-1,-2.012741715E-1
4.222882230E-1,-1.062874198E-1,6.647545099E-1,-1.989834905E-1
4.246417640E-1,-1.076618284E-1,6.850652099E-1,-1.977618039E-1
4.269953060E-1,-1.116323397E-1,7.078192830E-1,-2.003578991E-1
4.293488480E-1,-1.128540337E-1,7.258392572E-1,-2.017323077E-1
4.317024410E-1,-1.130067408E-1,7.438592315E-1,-1.992889196E-1
4.340559830E-1,-1.107160673E-1,7.606575489E-1,-1.994416267E-1
4.364095250E-1,-1.096470803E-1,7.811209559E-1,-1.982199401E-1
4.387630660E-1,-1.085781008E-1,8.002098799E-1,-1.994416267E-1
4.411166080E-1,-1.036913246E-1,8.194515705E-1,-1.994416267E-1
4.434701500E-1,-1.001789495E-1,8.458707333E-1,-2.008160353E-1
4.458236910E-1,-9.910997003E-2,8.686248064E-1,-1.995943487E-1
4.481772330E-1,-9.300149232E-2,8.915315866E-1,-1.983726472E-1
4.505307750E-1,-8.460234851E-2,9.179506898E-1,-1.934858710E-1
4.528843160E-1,-7.879929990E-2,9.491039515E-1,-1.849340051E-1
4.552378580E-1,-7.055285573E-2,9.816315174E-1,-1.776038408E-1
4.575914000E-1,-5.971032009E-2,1.020114899E0,-1.678302884E-1
4.599449410E-1,-4.672981426E-2,1.074327588E0,-1.519482583E-1
4.622984830E-1,-3.390202299E-2,1.128387570E0,-1.311794519E-1
4.646520250E-1,-2.458660305E-2,1.177713513E0,-1.140757278E-1
4.670055660E-1,-1.420219894E-2,1.235438585E0,-9.575030953E-2
4.693591080E-1,-2.596100792E-3,1.308740258E0,-7.635590434E-2
4.717126500E-1,-1.068982761E-3,1.386928678E0,-5.573981255E-2
4.740662430E-1,6.108472589E-4,1.455343604E0,-3.649812192E-2
4.764197850E-1,-1.374406274E-3,1.527423620E0,-1.954711229E-2
4.787733270E-1,-8.399149403E-3,1.607902646E0,-2.901524538E-3
4.811268680E-1,-1.924168877E-2,1.690825224E0,1.863084175E-2
4.834804100E-1,-3.512371704E-2,1.777260065E0,4.016320780E-2
4.858339520E-1,-5.360184610E-2,1.865985632E0,6.642963737E-2
4.881874930E-1,-7.696675509E-2,1.953642249E0,9.513945878E-2
4.905410350E-1,-1.018587798E-1,2.050919771E0,1.299577504E-1
4.928945770E-1,-1.278197914E-1,2.139797926E0,1.647760421E-1
4.952481180E-1,-1.527118087E-1,2.231119633E0,1.995943487E-1
4.976016600E-1,-1.798945218E-1,2.324732065E0,2.330382317E-1
4.999552020E-1,-2.009687424E-1,2.417275429E0,2.692309320E-1
5.023087430E-1,-2.270824611E-1,2.514552832E0,3.051182032E-1
5.046622850E-1,-2.469350100E-1,2.608317852E0,3.374931216E-1
5.070158270E-1,-2.654131353E-1,2.701930046E0,3.626905680E-1
5.093693680E-1,-2.823641598E-1,2.784699917E0,3.804051280E-1
5.117229100E-1,-2.979407609E-1,2.859070539E0,3.909422457E-1
5.140764520E-1,-3.122956753E-1,2.938175201E0,3.978142738E-1
5.164300460E-1,-3.242071867E-1,3.019723415E0,4.071297050E-1
5.187835870E-1,-3.385621011E-1,3.100049734E0,4.150707126E-1
5.211371290E-1,-3.529170156E-1,3.175642252E0,4.280512035E-1
5.234906710E-1,-3.636068404E-1,3.246500492E0,4.424061179E-1
5.258442120E-1,-3.742966652E-1,3.316137075E0,4.578300118E-1
5.281977540E-1,-3.875826001E-1,3.384704590E0,4.782933891E-1
5.305512960E-1,-3.968980014E-1,3.443498611E0,4.961606860E-1
5.329048370E-1,-4.074351192E-1,3.483203888E0,5.131117105E-1
5.352583790E-1,-4.141544402E-1,3.513288021E0,5.300627351E-1
5.376119210E-1,-4.181249440E-1,3.531307936E0,5.433486104E-1
5.399654620E-1,-4.220954478E-1,3.534973145E0,5.494571328E-1
5.423058790E-1,-4.220954478E-1,3.529017210E0,5.543438792E-1
5.446725460E-1,-4.219427407E-1,3.515884161E0,5.555655956E-1
5.470260870E-1,-4.179722369E-1,3.488243341E0,5.483881235E-1
5.493665560E-1,-4.063661397E-1,3.471292257E0,5.302154422E-1
5.517331710E-1,-3.810159862E-1,3.474804640E0,4.950917065E-1
5.540867640E-1,-3.541387022E-1,3.472208500E0,4.501944184E-1
5.564271810E-1,-3.274141252E-1,3.449301720E0,4.101839364E-1
5.587938480E-1,-3.017585576E-1,3.408375025E0,3.764346242E-1
5.611473890E-1,-2.785463631E-1,3.355536699E0,3.513898849E-1
5.635009310E-1,-2.605263591E-1,3.295368195E0,3.347443044E-1
5.658544730E-1,-2.463241518E-1,3.227106094E0,3.277195692E-1
5.682080140E-1,-2.394521236E-1,3.149070263E0,3.269560039E-1
5.705615560E-1,-2.351761907E-1,3.061566353E0,3.335226178E-1
5.729150980E-1,-2.322746664E-1,2.969328642E0,3.400892019E-1
5.752686390E-1,-2.292204350E-1,2.872203827E0,3.489464819E-1
5.776090560E-1,-2.235700935E-1,2.769123316E0,3.568875194E-1
5.799757230E-1,-2.142546773E-1,2.663752079E0,3.597890437E-1
5.823292640E-1,-2.047865391E-1,2.559449911E0,3.603998721E-1
5.846696810E-1,-1.904316396E-1,2.450261116E0,3.622324169E-1
5.870363480E-1,-1.734806150E-1,2.342446566E0,3.616215885E-1
5.893898890E-1,-1.577513069E-1,2.230966806E0,3.587200642E-1
5.917434310E-1,-1.345391124E-1,2.120708942E0,3.570402265E-1
5.940970250E-1,-1.127013192E-1,2.015185118E0,3.527642787E-1
5.964505660E-1,-9.452861547E-2,1.914548039E0,3.486410677E-1
5.988041080E-1,-7.513421029E-2,1.815132618E0,3.455868363E-1
6.011576500E-1,-5.589252338E-2,1.722741961E0,3.449759781E-1
6.035111910E-1,-3.787253052E-2,1.632947445E0,3.443651497E-1
6.058647330E-1,-2.367033064E-2,1.547886968E0,3.474193811E-1
6.082182750E-1,-1.068982668E-2,1.471072912E0,3.454341292E-1
6.105718160E-1,-3.054236295E-4,1.398076653E0,3.471139669E-1
6.129253580E-1,8.857285604E-3,1.332105160E0,3.486410677E-1
6.152789000E-1,1.557660475E-2,1.267355323E0,3.477247953E-1
6.176324410E-1,1.969982497E-2,1.208561301E0,3.480302393E-1
6.199859830E-1,2.260134928E-2,1.153432369E0,3.446705639E-1
6.223395250E-1,2.550287358E-2,1.103037477E0,3.436015844E-1
6.246930660E-1,2.962609194E-2,1.058750987E0,3.402419090E-1
6.270466080E-1,3.115320951E-2,1.017824292E0,3.342861533E-1
6.294001500E-1,3.283303976E-2,9.807152748E-1,3.295520842E-1
6.317536910E-1,3.313846514E-2,9.458969831E-1,3.248180151E-1
6.341072330E-1,3.100049868E-2,9.145910740E-1,3.199312389E-1
6.364608270E-1,3.008422814E-2,8.809944391E-1,3.151971996E-1
6.388143680E-1,3.023693897E-2,8.557969928E-1,3.129065037E-1
6.411678580E-1,3.298575059E-2,8.283088803E-1,3.118375242E-1
6.435214520E-1,3.191677108E-2,8.041804433E-1,3.118375242E-1
6.458749930E-1,3.695625812E-2,7.803573608E-1,3.144336343E-1
6.482285350E-1,4.199574888E-2,7.551599145E-1,3.184041381E-1
6.505820770E-1,4.963133857E-2,7.288935184E-1,3.234436214E-1
6.529356180E-1,5.833591148E-2,7.036960125E-1,3.310792148E-1
6.552891600E-1,6.704048812E-2,6.726955175E-1,3.397837877E-1
6.576427020E-1,7.330167294E-2,6.415423155E-1,3.498627543E-1
6.599962430E-1,8.078455180E-2,6.093201637E-1,3.648285270E-1
6.623497850E-1,8.704573661E-2,5.709894896E-1,3.784198761E-1
6.647033270E-1,9.575030953E-2,5.305208564E-1,3.982724249E-1
6.670568680E-1,1.043021679E-1,4.874561131E-1,4.182776511E-1
6.694104100E-1,1.130067408E-1,4.408790171E-1,4.417952895E-1
6.717639520E-1,1.191152185E-1,3.943018913E-1,4.628695250E-1
6.741174930E-1,1.265980899E-1,3.500154912E-1,4.876088202E-1
6.764710350E-1,1.363716573E-1,3.083251417E-1,5.112791657E-1
6.788245770E-1,1.473668963E-1,2.713688910E-1,5.347967744E-1
6.811781180E-1,1.609582454E-1,2.403683960E-1,5.583143830E-1
6.835317120E-1,1.695101112E-1,2.177670449E-1,5.757235289E-1
6.858852540E-1,1.805053651E-1,2.034121305E-1,5.894675851E-1
6.882387960E-1,1.890572309E-1,1.963873953E-1,6.018372774E-1
6.905923370E-1,1.937913001E-1,1.977618039E-1,6.140542030E-1
6.929458790E-1,1.973036677E-1,2.086043358E-1,6.215370893E-1
6.952994210E-1,1.983726472E-1,2.289150059E-1,6.262711287E-1
6.976529620E-1,1.980672181E-1,2.589992285E-1,6.297835112E-1
7.000065040E-1,2.002051920E-1,2.950392365E-1,6.334486008E-1
7.023600460E-1,1.986780763E-1,3.405473530E-1,6.306998134E-1
7.047135870E-1,1.945548505E-1,3.968980014E-1,6.268820167E-1
7.070671290E-1,1.881409585E-1,4.592044353E-1,6.154286265E-1
7.094206710E-1,1.791309565E-1,5.273138881E-1,6.039752364E-1
7.117742120E-1,1.664558798E-1,5.992411375E-1,5.876350403E-1
7.141277540E-1,1.476723254E-1,6.708629727E-1,5.686988235E-1
7.164812960E-1,1.276670843E-1,7.485933304E-1,5.448757410E-1
7.188348370E-1,1.027750522E-1,8.251019120E-1,5.196782947E-1
7.211883790E-1,8.032641560E-2,8.979454637E-1,4.934118688E-1
7.235419730E-1,5.543438718E-2,9.684983492E-1,4.659237564E-1
7.258955140E-1,2.932066843E-2,1.037829518E0,4.382829070E-1
7.282490560E-1,5.803049076E-3,1.102273822E0,4.107947946E-1
7.306025980E-1,-1.527118124E-2,1.163205862E0,3.857500553E-1
7.329561390E-1,-3.527642787E-2,1.220472813E0,3.680354655E-1
7.353096810E-1,-5.146388337E-2,1.271936655E0,3.504736125E-1
7.376632230E-1,-7.009471953E-2,1.313627005E0,3.353551328E-1
7.400167640E-1,-8.276980370E-2,1.356691718E0,3.264978528E-1
7.423703060E-1,-9.529217333E-2,1.391510010E0,3.237490356E-1
7.447238480E-1,-1.091889441E-1,1.421441555E0,3.220692277E-1
7.470773890E-1,-1.229330078E-1,1.441752195E0,3.243598938E-1
7.494309310E-1,-1.380514801E-1,1.457328796E0,3.277195692E-1
7.517844730E-1,-1.556133330E-1,1.465728045E0,3.347443044E-1
7.541380140E-1,-1.705790907E-1,1.468018651E0,3.431434333E-1
7.564915560E-1,-1.869192570E-1,1.466796994E0,3.526115716E-1
7.588450980E-1,-2.017323077E-1,1.457176089E0,3.585673273E-1
7.611986390E-1,-2.142546773E-1,1.445264578E0,3.671191931E-1
7.635521810E-1,-2.254026383E-1,1.430909753E0,3.755183518E-1
7.659057230E-1,-2.328855246E-1,1.414111376E0,3.852919042E-1
7.682592640E-1,-2.415900975E-1,1.398534775E0,3.950654566E-1
7.706128580E-1,-2.478512824E-1,1.379445791E0,4.060607255E-1
7.729664000E-1,-2.504473627E-1,1.365090966E0,4.133908749E-1
7.753199410E-1,-2.516690791E-1,1.354248405E0,4.243861437E-1
7.776734830E-1,-2.506000996E-1,1.338824511E0,4.343124032E-1
7.800270250E-1,-2.493783981E-1,1.331647038E0,4.440859556E-1
7.823805660E-1,-2.495311052E-1,1.324622273E0,4.564556181E-1
7.847341080E-1,-2.496838123E-1,1.318666577E0,4.662291706E-1
7.870876500E-1,-2.559449971E-1,1.313932419E0,4.735593498E-1
7.894411910E-1,-2.622061968E-1,1.309045672E0,4.782933891E-1
7.917947330E-1,-2.709107697E-1,1.303089857E0,4.807367921E-1
7.941482750E-1,-2.770192325E-1,1.296981454E0,4.805840850E-1
7.965018160E-1,-2.869454920E-1,1.293316364E0,4.779879749E-1
7.988553580E-1,-2.967190444E-1,1.289651275E0,4.743228853E-1
8.012089000E-1,-3.040492237E-1,1.289651275E0,4.680617154E-1
8.035624410E-1,-3.150444627E-1,1.289498568E0,4.605788291E-1
8.059159830E-1,-3.235963285E-1,1.289498568E0,4.518742561E-1
8.082695250E-1,-3.335226178E-1,1.293010950E0,4.443913698E-1
8.106230660E-1,-3.443651497E-1,1.294079900E0,4.330907166E-1
8.129766080E-1,-3.567348123E-1,1.293927193E0,4.256078303E-1
8.153302020E-1,-3.701734245E-1,1.290262103E0,4.132381678E-1
8.176837430E-1,-3.834593594E-1,1.284000993E0,3.970507085E-1
8.200372850E-1,-3.981196880E-1,1.274227381E0,3.846810758E-1
8.223908270E-1,-4.089622498E-1,1.262163162E0,3.710896969E-1
8.247443680E-1,-4.184303582E-1,1.245212078E0,3.564293683E-1
8.270979100E-1,-4.242334068E-1,1.222305417E0,3.391729295E-1
8.294514520E-1,-4.262186885E-1,1.200620294E0,3.208475113E-1
8.318049930E-1,-4.269822240E-1,1.172979474E0,3.063398898E-1
8.341585350E-1,-4.240806997E-1,1.145185947E0,2.906105816E-1
8.365120770E-1,-4.175141156E-1,1.112810969E0,2.761029601E-1
8.388656180E-1,-4.107947946E-1,1.077992678E0,2.664821148E-1
8.412191600E-1,-4.042281806E-1,1.043174386E0,2.545706034E-1
8.435727020E-1,-3.938437700E-1,1.002400398E0,2.473931462E-1
8.459262430E-1,-3.860554695E-1,9.616262913E-1,2.415900975E-1
8.482797850E-1,-3.758237660E-1,9.231429100E-1,2.394521236E-1
8.506333270E-1,-3.668137789E-1,8.825215697E-1,2.360924631E-1
8.529868680E-1,-3.590254784E-1,8.429692388E-1,2.363978922E-1
8.553404100E-1,-3.513898849E-1,8.057075143E-1,2.353289127E-1
8.576940040E-1,-3.448232710E-1,7.661551833E-1,2.380777150E-1
8.600475460E-1,-3.371876776E-1,7.327113152E-1,2.357870489E-1
8.624010870E-1,-3.307738006E-1,6.991146803E-1,2.360924631E-1
8.647546290E-1,-3.254288733E-1,6.667397618E-1,2.338017821E-1
8.671081710E-1,-3.214583695E-1,6.390989423E-1,2.302894145E-1
8.694617120E-1,-3.162661791E-1,6.139014959E-1,2.279987335E-1
8.718152540E-1,-3.136700690E-1,5.876350403E-1,2.257080674E-1
8.741687960E-1,-3.133646548E-1,5.694623590E-1,2.197522968E-1
8.765223370E-1,-3.132119179E-1,5.538857579E-1,2.185306102E-1
8.788758790E-1,-3.142809272E-1,5.419742465E-1,2.148655206E-1
8.812294210E-1,-3.191677034E-1,5.322006941E-1,2.099787444E-1
8.835829620E-1,-3.226800561E-1,5.238015056E-1,2.050919682E-1
8.859365040E-1,-3.313846290E-1,5.176930428E-1,2.012741715E-1
8.882900460E-1,-3.411581814E-1,5.105155706E-1,1.986780763E-1
8.906435870E-1,-3.523061574E-1,5.056288242E-1,1.973036677E-1
8.929971290E-1,-3.608580232E-1,5.056288242E-1,1.934858710E-1
8.953506710E-1,-3.732276857E-1,5.031854510E-1,1.921114624E-1
8.977042120E-1,-3.843756318E-1,5.054761171E-1,1.931804419E-1
9.000577540E-1,-3.981196880E-1,5.089884996E-1,1.954711229E-1
9.024112960E-1,-4.106420577E-1,5.173876286E-1,1.977618039E-1
9.047648370E-1,-4.256078303E-1,5.270084739E-1,1.986780763E-1
9.071184310E-1,-4.405735731E-1,5.401417017E-1,1.983726472E-1
9.094719730E-1,-4.569137394E-1,5.544965863E-1,2.017323077E-1
9.118255140E-1,-4.706578255E-1,5.699204803E-1,2.040229887E-1
9.141790560E-1,-4.857762754E-1,5.891621709E-1,2.073826492E-1
9.165325980E-1,-4.995203316E-1,6.070294380E-1,2.095206082E-1
9.188861390E-1,-5.108210444E-1,6.274928451E-1,2.118112892E-1
9.212396810E-1,-5.196782947E-1,6.478035450E-1,2.127275616E-1
9.235932230E-1,-5.285356045E-1,6.693359017E-1,2.125748396E-1
9.259467640E-1,-5.335750580E-1,6.885775924E-1,2.112004459E-1
9.283003060E-1,-5.361711979E-1,7.064448595E-1,2.110477239E-1
9.306538480E-1,-5.375455618E-1,7.220214605E-1,2.086043358E-1
9.330073890E-1,-5.389199853E-1,7.351546884E-1,2.072299272E-1
9.353609310E-1,-5.376983285E-1,7.496622801E-1,2.072299272E-1
9.377144730E-1,-5.366293192E-1,7.615737915E-1,2.096733153E-1
9.400680140E-1,-5.366293192E-1,7.711946368E-1,2.107423097E-1
9.424215560E-1,-5.343386531E-1,7.844805717E-1,2.144073844E-1
9.447750980E-1,-5.320479870E-1,7.953231335E-1,2.180724740E-1
9.471286390E-1,-5.322006941E-1,8.037222624E-1,2.229592502E-1
9.494822330E-1,-5.335750580E-1,8.133431077E-1,2.290677279E-1
9.518357750E-1,-5.349494815E-1,8.229639530E-1,2.327328026E-1
9.541893160E-1,-5.387672782E-1,8.325847983E-1,2.386885732E-1
9.565428580E-1,-5.427377820E-1,8.386932611E-1,2.472404242E-1
9.588964000E-1,-5.453338623E-1,8.493831158E-1,2.519744933E-1
9.612499410E-1,-5.493044257E-1,8.602256775E-1,2.593046725E-1
9.636034830E-1,-5.557183027E-1,8.722898960E-1,2.664821148E-1
9.659570250E-1,-5.584670901E-1,8.867974877E-1,2.761029601E-1
9.683105660E-1,-5.624375939E-1,8.987090588E-1,2.858765125E-1
9.706641080E-1,-5.676298141E-1,9.132166505E-1,2.954973578E-1
9.730176500E-1,-5.716003180E-1,9.275715351E-1,3.052709103E-1
9.753711910E-1,-5.731274486E-1,9.457442760E-1,3.161134422E-1
9.777247330E-1,-5.760289431E-1,9.637642503E-1,3.271087110E-1
9.800782750E-1,-5.763344169E-1,9.842276573E-1,3.379512429E-1
9.824318160E-1,-5.754181147E-1,1.004691005E0,3.477247953E-1
9.847853580E-1,-5.731274486E-1,1.022711039E0,3.574983478E-1
9.871389000E-1,-5.647283196E-1,1.039662004E0,3.648285270E-1
9.894924410E-1,-5.575508475E-1,1.055238605E0,3.759764731E-1
9.918460350E-1,-5.479300022E-1,1.068677306E0,3.869717419E-1
9.941995770E-1,-5.383091569E-1,1.077076435E0,4.017847776E-1
9.965531180E-1,-5.236487985E-1,1.084406614E0,4.143071473E-1
9.989066600E-1,-5.089884996E-1,1.092958450E0,4.242334068E-1
1.001260202E0,-4.918847680E-1,1.102732062E0,4.367557764E-1
1.003613743E0,-4.735593498E-1,1.110062122E0,4.491254389E-1
1.005967285E0,-4.515688419E-1,1.121057391E0,4.640912116E-1
1.008320827E0,-4.257605374E-1,1.127318621E0,4.755446017E-1
1.010674368E0,-3.988832533E-1,1.137092113E0,4.905103445E-1
1.013027910E0,-3.718532622E-1,1.150530815E0,5.019637346E-1
1.015381452E0,-3.423798978E-1,1.166260123E0,5.157077909E-1
1.017734993E0,-3.142809272E-1,1.182142138E0,5.294518471E-1
1.020088535E0,-2.848075330E-1,1.201536536E0,5.433486104E-1
1.022442077E0,-2.553341687E-1,1.217265844E0,5.570927262E-1
1.024795618E0,-2.247917950E-1,1.234216928E0,5.709894896E-1
1.027149160E0,-1.965401024E-1,1.253764033E0,5.873296261E-1
1.029502702E0,-1.708845198E-1,1.270714998E0,6.035171151E-1
1.031856243E0,-1.441599578E-1,1.288887739E0,6.209262609E-1
1.034209785E0,-1.197260618E-1,1.304769754E0,6.371136904E-1
1.036563327E0,-9.773556143E-2,1.322942495E0,6.545228362E-1
1.038916868E0,-7.956285775E-2,1.342336893E0,6.668924689E-1
1.041270410E0,-6.490252167E-2,1.359135151E0,6.780404449E-1
1.043624004E0,-5.039490014E-2,1.380972981E0,6.867450476E-1
1.045977546E0,-4.321744293E-2,1.404948711E0,6.942279339E-1
1.048331087E0,-3.726168349E-2,1.427855492E0,7.015580535E-1
1.050684629E0,-3.497100621E-2,1.456565261E0,7.038487792E-1
1.053038171E0,-3.771981969E-2,1.485427856E0,7.049177289E-1
1.055391712E0,-4.169032723E-2,1.514137626E0,7.047650218E-1
1.057745254E0,-4.810422286E-2,1.548955917E0,7.046123147E-1
1.060098796E0,-5.711421743E-2,1.586064935E0,7.030851841E-1
1.062452337E0,-6.978929788E-2,1.626838923E0,7.027797699E-1
1.064805879E0,-8.490777016E-2,1.667460322E0,7.010999322E-1
1.067159421E0,-1.014006436E-1,1.710677743E0,7.030851841E-1
1.069512962E0,-1.203369126E-1,1.757254839E0,7.038487792E-1
1.071866504E0,-1.418692768E-1,1.805206418E0,7.082774043E-1
1.074220046E0,-1.632489264E-1,1.851936221E0,7.114843726E-1
1.076573587E0,-1.860029846E-1,1.899887681E0,7.159129977E-1
1.078927129E0,-2.112004459E-1,1.946617484E0,7.226322889E-1
1.081280671E0,-2.339545041E-1,1.993194580E0,7.270609736E-1
1.083634212E0,-2.605263591E-1,2.038855553E0,7.351546884E-1
1.085987754E0,-2.881672084E-1,2.080698490E0,7.430956960E-1
1.088341348E0,-3.109212518E-1,2.116585732E0,7.487460375E-1
1.090694889E0,-3.348970115E-1,2.153847456E0,7.617265582E-1
1.093048431E0,-3.600944579E-1,2.186069727E0,7.698202729E-1
1.095401973E0,-3.877353072E-1,2.216001034E0,7.791357040E-1
1.097755514E0,-4.141544402E-1,2.242420197E0,7.847860456E-1
1.100109056E0,-4.416425824E-1,2.267465115E0,7.916580439E-1
1.102462598E0,-4.717268050E-1,2.290219069E0,7.971556783E-1
1.104816139E0,-4.967715442E-1,2.310529709E0,8.029587269E-1
1.107169681E0,-5.230379701E-1,2.333283901E0,8.098307252E-1
1.109523223E0,-5.456393361E-1,2.349929333E0,8.167027831E-1
1.111876764E0,-5.670189857E-1,2.366727591E0,8.273926377E-1
1.114230306E0,-5.821374655E-1,2.383526087E0,8.368607163E-1
1.116583848E0,-5.996993184E-1,2.396659136E0,8.438854814E-1
1.118937389E0,-6.148177385E-1,2.408723354E0,8.559496999E-1
1.121290931E0,-6.262711287E-1,2.417122602E0,8.643488884E-1
1.123644473E0,-6.339067221E-1,2.423231125E0,8.751913905E-1
1.125998014E0,-6.452074051E-1,2.427965164E0,8.848122358E-1
1.128351556E0,-6.503996253E-1,2.427965164E0,8.970292211E-1
1.130705098E0,-6.531484127E-1,2.428117752E0,9.104678631E-1
1.133058639E0,-6.545228362E-1,2.430561304E0,9.214630723E-1
1.135412181E0,-6.548282504E-1,2.430713892E0,9.336800575E-1
1.137765775E0,-6.537593007E-1,2.429492235E0,9.458969831E-1
1.140119316E0,-6.514685750E-1,2.433310032E0,9.568922520E-1
1.142472858E0,-6.516213417E-1,2.432088375E0,9.729269743E-1
1.144826400E0,-6.456655264E-1,2.433462858E0,9.851438999E-1
1.147179941E0,-6.421532035E-1,2.433615446E0,9.987352490E-1
1.149533483E0,-6.412369013E-1,2.430103064E0,1.015838981E0
1.151887025E0,-6.403206587E-1,2.431324720E0,1.031873703E0
1.154240566E0,-6.404733658E-1,2.430255890E0,1.047755718E0
1.156594108E0,-6.369609833E-1,2.424452782E0,1.063790560E0
1.158947650E0,-6.384881139E-1,2.420940399E0,1.082115889E0
1.161301191E0,-6.375718117E-1,2.418649673E0,1.096776247E0
1.163654733E0,-6.377245188E-1,2.415137291E0,1.112658262E0
1.166008275E0,-6.380299330E-1,2.414068460E0,1.131136417E0
1.168361816E0,-6.432221532E-1,2.406890869E0,1.145796776E0
1.170715358E0,-6.447492838E-1,2.405822039E0,1.164122105E0
1.173068900E0,-6.450546980E-1,2.405974627E0,1.181225896E0
1.175422441E0,-6.502469182E-1,2.407196283E0,1.197107911E0
1.177775983E0,-6.529957056E-1,2.409792423E0,1.214211583E0
1.180129525E0,-6.583406329E-1,2.414679289E0,1.231162667E0
1.182483066E0,-6.623111367E-1,2.419565916E0,1.244601250E0
1.184836660E0,-6.662816405E-1,2.427965164E0,1.259261608E0
1.187190150E0,-6.740699410E-1,2.438807726E0,1.273769259E0
1.189543743E0,-6.817055345E-1,2.447359562E0,1.288276911E0
1.191897285E0,-6.882721782E-1,2.458202124E0,1.304158926E0
1.194250827E0,-6.960604787E-1,2.470266342E0,1.319888234E0
1.196604368E0,-7.038487792E-1,2.483552217E0,1.333174109E0
1.198957910E0,-7.116370797E-1,2.497907162E0,1.347681761E0
1.201311452E0,-7.182036638E-1,2.517301559E0,1.362189412E0
1.203664993E0,-7.259919643E-1,2.535321474E0,1.375475287E0
1.206018535E0,-7.339329720E-1,2.560518980E0,1.389982939E0
1.208372077E0,-7.392778993E-1,2.582204103E0,1.405712247E0
1.210725618E0,-7.446228266E-1,2.608623266E0,1.420219898E0
1.213079160E0,-7.513421178E-1,2.637485743E0,1.438392639E0
1.215432702E0,-7.566870451E-1,2.666348219E0,1.451678514E0
1.217786243E0,-7.609629631E-1,2.696432590E0,1.467407823E0
1.220139785E0,-7.663078904E-1,2.731250763E0,1.481915474E0
1.222493327E0,-7.718055248E-1,2.766221762E0,1.497644782E0
1.224846868E0,-7.748597264E-1,2.805926800E0,1.514595747E0
1.227200410E0,-7.791357040E-1,2.841966867E0,1.529103398E0
1.229553952E0,-7.844805717E-1,2.878006935E0,1.543458343E0
1.231907546E0,-7.899782062E-1,2.917559147E0,1.556744218E0
1.234261087E0,-7.979192138E-1,2.953599215E0,1.568808436E0
1.236614629E0,-8.070819378E-1,2.989639282E0,1.580719948E0
1.238968171E0,-8.148702383E-1,3.024457455E0,1.588966489E0
1.241321712E0,-8.238802552E-1,3.056832314E0,1.598587275E0
1.243675254E0,-8.318212628E-1,3.088138342E0,1.606986403E0
1.246028796E0,-8.406785131E-1,3.115626335E0,1.610346079E0
1.248382337E0,-8.509102464E-1,3.142045498E0,1.616301894E0
1.250735879E0,-8.609892130E-1,3.162356377E0,1.619661450E0
1.253089421E0,-8.710681796E-1,3.180376291E0,1.621952176E0
1.255442962E0,-8.823688626E-1,3.198243618E0,1.621646762E0
1.257796504E0,-8.936695457E-1,3.211529493E0,1.621494055E0
1.260150046E0,-9.048175216E-1,3.223440886E0,1.619966984E0
1.262503587E0,-9.147437811E-1,3.230465651E0,1.616149187E0
1.264857129E0,-9.234483242E-1,3.235199690E0,1.611109614E0
1.267210671E0,-9.320002198E-1,3.231534719E0,1.603626728E0
1.269564212E0,-9.379559755E-1,3.224357367E0,1.595074892E0
1.271917754E0,-9.414683580E-1,3.215805292E0,1.587744713E0
1.274271296E0,-9.449806809E-1,3.197785378E0,1.579192877E0
1.276624837E0,-9.446752667E-1,3.177321911E0,1.571862698E0
1.278978379E0,-9.443698525E-1,3.155637026E0,1.563463569E0
1.281331921E0,-9.416210651E-1,3.127996206E0,1.556133389E0
1.283685462E0,-9.350544214E-1,3.094399452E0,1.546665311E0
1.286039056E0,-9.258917570E-1,3.062024593E0,1.539487839E0
1.288392598E0,-9.144383669E-1,3.024915695E0,1.533684731E0
1.290746139E0,-9.016105533E-1,2.985363245E0,1.527881742E0
1.293099681E0,-8.838959932E-1,2.939702511E0,1.521009684E0
1.295453223E0,-8.635852933E-1,2.893125296E0,1.517802715E0
1.297806764E0,-8.432746530E-1,2.846395493E0,1.510930657E0
1.300160306E0,-8.205205798E-1,2.798444033E0,1.502836943E0
1.302513848E0,-7.953231335E-1,2.752935886E0,1.496117592E0
1.304867389E0,-7.687512636E-1,2.706206083E0,1.486802220E0
1.307220931E0,-7.409577370E-1,2.658254623E0,1.477639556E0
1.309574473E0,-7.131641507E-1,2.612746477E0,1.466033459E0
1.311928014E0,-6.853706241E-1,2.571972370E0,1.451831222E0
1.314281556E0,-6.537593007E-1,2.531198263E0,1.435338378E0
1.316635098E0,-6.259657145E-1,2.491646051E0,1.417471051E0
1.318988639E0,-5.967977643E-1,2.448428631E0,1.398534775E0
1.321342181E0,-5.676298141E-1,2.407654524E0,1.379445791E0
1.323695723E0,-5.409052372E-1,2.363215446E0,1.359287858E0
1.326049264E0,-5.131117105E-1,2.319997787E0,1.342642307E0
1.328402806E0,-4.827220440E-1,2.272046328E0,1.323706031E0
1.330756348E0,-4.523324072E-1,2.227759838E0,1.308282137E0
1.333109889E0,-4.231644273E-1,2.185764313E0,1.291789293E0
1.335463483E0,-3.929274976E-1,2.140256166E0,1.277739763E0
1.337816973E0,-3.639122546E-1,2.097038746E0,1.263537526E0
1.340170566E0,-3.335226178E-1,2.055195570E0,1.249488115E0
1.342524108E0,-3.057290614E-1,2.010756493E0,1.239103675E0
1.344877650E0,-2.767138183E-1,1.965248346E0,1.223679781E0
1.347231191E0,-2.451024652E-1,1.919740200E0,1.209630251E0
1.349584733E0,-2.134911120E-1,1.873010397E0,1.195580840E0
1.351938275E0,-1.818797737E-1,1.825058937E0,1.179087877E0
1.354291816E0,-1.490467340E-1,1.775885701E0,1.158929944E0
1.356645358E0,-1.172826737E-1,1.727934241E0,1.142437100E0
1.358998900E0,-8.200624585E-2,1.677539229E0,1.124722481E0
1.361352441E0,-4.779879749E-2,1.621188641E0,1.105938911E0
1.363705983E0,-1.114796288E-2,1.567281365E0,1.084559321E0
1.366059525E0,2.428117767E-2,1.509709001E0,1.066997409E0
1.368413066E0,6.230641901E-2,1.454580069E0,1.048061132E0
1.370766608E0,9.636115283E-2,1.397007704E0,1.034164429E0
1.373120150E0,1.330119967E-1,1.341878772E0,1.020114899E0
1.375473691E0,1.682884246E-1,1.287971497E0,1.006218195E0
1.377827233E0,2.011214644E-1,1.236507535E0,9.982771277E-1
1.380180775E0,2.350234836E-1,1.188556075E0,9.904888272E-1
1.382534316E0,2.715215981E-1,1.143200636E0,9.825478196E-1
1.384887910E0,3.028275371E-1,1.103648305E0,9.746068120E-1
1.387241452E0,3.330644667E-1,1.066539288E0,9.677347541E-1
1.389594993E0,3.631486893E-1,1.029430389E0,9.610154629E-1
1.391948535E0,3.895678520E-1,9.994988441E-1,9.529217482E-1
1.394302077E0,4.184303582E-1,9.707890153E-1,9.462023973E-1
1.396655618E0,4.436278343E-1,9.445225596E-1,9.355126023E-1
1.399009160E0,4.674508572E-1,9.168817401E-1,9.249754548E-1
1.401362702E0,4.914266169E-1,8.906152844E-1,9.156600237E-1
1.403716243E0,5.128062963E-1,8.617527485E-1,9.051229358E-1
1.406069785E0,5.354076028E-1,8.318212628E-1,9.005415440E-1
1.408423327E0,5.557183027E-1,7.983773947E-1,8.924478292E-1
1.410776868E0,5.783196688E-1,7.660024762E-1,8.855758309E-1
1.413130410E0,5.996993184E-1,7.313368917E-1,8.835905790E-1
1.415483952E0,6.223006248E-1,6.977402568E-1,8.816053271E-1
1.417837493E0,6.424586177E-1,6.690304875E-1,8.806890249E-1
1.420191035E0,6.624638438E-1,6.415423155E-1,8.799254894E-1
1.422544577E0,6.812474132E-1,6.164975762E-1,8.777875304E-1
1.424898118E0,7.024743557E-1,5.949652195E-1,8.794673681E-1
1.427251660E0,7.200362086E-1,5.734328628E-1,8.761076927E-1
1.429605202E0,7.400414348E-1,5.578562617E-1,8.715263009E-1
1.431958743E0,7.563816309E-1,5.471664071E-1,8.669449687E-1
1.434312337E0,7.725690603E-1,5.399889946E-1,8.622109294E-1
1.436665879E0,7.899782062E-1,5.375455618E-1,8.576295376E-1
1.439019421E0,8.025006056E-1,5.436540842E-1,8.516737819E-1
1.441372962E0,8.174663186E-1,5.555655956E-1,8.457180262E-1
1.443726504E0,8.286142945E-1,5.664080977E-1,8.409839869E-1
1.446080046E0,8.371661901E-1,5.807630420E-1,8.373188972E-1
1.448433587E0,8.432746530E-1,6.012263894E-1,8.348754644E-1
1.450787129E0,8.457180262E-1,6.215370893E-1,8.312104344E-1
1.453140671E0,8.492304087E-1,6.432221532E-1,8.286142945E-1
1.455494212E0,8.480086923E-1,6.694886088E-1,8.211314082E-1
1.457847754E0,8.478559852E-1,6.971294284E-1,8.174663186E-1
1.460201296E0,8.464815617E-1,7.270609736E-1,8.124268651E-1
1.462554837E0,8.426637650E-1,7.557707429E-1,8.049439788E-1
1.464908379E0,8.388460279E-1,7.892146707E-1,7.973083854E-1
1.467261921E0,8.350282311E-1,8.203678727E-1,7.886037827E-1
1.469615462E0,8.324320912E-1,8.527427912E-1,7.811209559E-1
1.471969004E0,8.237275481E-1,8.837432861E-1,7.710419297E-1
1.474322546E0,8.148702383E-1,9.161182046E-1,7.634063363E-1
1.476676087E0,8.049439788E-1,9.483403563E-1,7.545490861E-1
1.479029629E0,7.948650122E-1,9.805625677E-1,7.456917763E-1
1.481383171E0,7.898254991E-1,1.014159203E0,7.369872332E-1
1.483736712E0,7.835643291E-1,1.042868972E0,7.295043468E-1
1.486090306E0,7.748597264E-1,1.070357084E0,7.182036638E-1
1.488443796E0,7.612683773E-1,1.101357579E0,7.044596076E-1
1.490797389E0,7.388197780E-1,1.139535546E0,6.904101372E-1
1.493150931E0,7.065975666E-1,1.190846682E0,6.726955175E-1
1.495504473E0,6.653653979E-1,1.255291104E0,6.558972597E-1
1.497858014E0,6.093201637E-1,1.335312128E0,6.339067221E-1
1.500211556E0,5.433486104E-1,1.431978703E0,6.093201637E-1
1.502551973E0,4.624113739E-1,1.534600973E0,5.833591223E-1
1.504918639E0,3.616215885E-1,1.643179178E0,5.532749295E-1
1.507272181E0,2.496838123E-1,1.755269647E0,5.242596865E-1
1.509612598E0,1.204896197E-1,1.870872498E0,4.938700199E-1
1.511979264E0,-2.015795931E-2,1.989987612E0,4.680617154E-1
1.514332806E0,-1.695101112E-1,2.110324621E0,4.459185004E-1
1.516673223E0,-3.237490356E-1,2.228370905E0,4.272876680E-1
1.519039889E0,-4.781406820E-1,2.343973637E0,4.136963189E-1
1.521393431E0,-6.313106418E-1,2.446443319E0,4.037700295E-1
1.523733848E0,-7.794411182E-1,2.532114506E0,3.988832533E-1
1.526100514E0,-9.162709117E-1,2.596253633E0,3.978142738E-1
1.528454056E0,-1.043174386E0,2.634126186E0,4.056025743E-1
1.530807598E0,-1.155112147E0,2.650619030E0,4.175141156E-1
1.533161139E0,-1.255749226E0,2.633515358E0,4.381301999E-1
1.535514733E0,-1.340198874E0,2.599766016E0,4.590517282E-1
1.537868275E0,-1.410904408E0,2.550440073E0,4.851654470E-1
1.540221816E0,-1.461757541E0,2.486912012E0,5.105155706E-1
1.542575358E0,-1.498866439E0,2.417275429E0,5.334223509E-1
1.544915775E0,-1.522231340E0,2.342904568E0,5.529694557E-1
1.547282441E0,-1.529408813E0,2.267465115E0,5.716003180E-1
1.549635983E0,-1.525438309E0,2.195690393E0,5.890094638E-1
1.551976400E0,-1.511541486E0,2.129871607E0,6.042806506E-1
1.554343066E0,-1.482831717E0,2.068939686E0,6.171084642E-1
1.556696608E0,-1.445417285E0,2.013963461E0,6.300889254E-1
1.559037025E0,-1.405559540E0,1.962652206E0,6.406260729E-1
1.561403691E0,-1.360662222E0,1.915006161E0,6.500942111E-1
1.563757233E0,-1.312252641E0,1.867207408E0,6.607840061E-1
1.566097650E0,-1.261094213E0,1.819561243E0,6.665870547E-1
1.568464316E0,-1.212531805E0,1.767028451E0,6.748335361E-1
1.570817858E0,-1.163816690E0,1.709761500E0,6.830799580E-1
1.573158327E0,-1.117697716E0,1.651120186E0,6.913263798E-1
1.575524941E0,-1.072800517E0,1.587897420E0,7.020162344E-1
1.577878483E0,-1.030346632E0,1.523300409E0,7.127060294E-1
1.580218952E0,-9.915578365E-1,1.460077643E0,7.269082665E-1
1.582585618E0,-9.529217482E-1,1.391968250E0,7.437065244E-1
1.584939160E0,-9.167290330E-1,1.318971992E0,7.579087615E-1
1.587279577E0,-8.817580342E-1,1.244906664E0,7.783721089E-1
1.589646243E0,-8.506048322E-1,1.169619799E0,7.974610925E-1
1.591999785E0,-8.192988634E-1,1.094332814E0,8.153283596E-1
1.594353327E0,-7.892146707E-1,1.021489382E0,8.307522535E-1
1.596706868E0,-7.579087615E-1,9.520054460E-1,8.449544907E-1
1.599060410E0,-7.279772162E-1,8.838959932E-1,8.577822447E-1
1.601413952E0,-7.003363967E-1,8.241856694E-1,8.670976758E-1
1.603767493E0,-6.728482842E-1,7.667660117E-1,8.762603998E-1
1.606121035E0,-6.490252018E-1,7.165238261E-1,8.828269839E-1
1.608474577E0,-6.239804626E-1,6.687250137E-1,8.883246183E-1
1.610828118E0,-6.001574397E-1,6.207735538E-1,8.938222528E-1
1.613181660E0,-5.787777901E-1,5.766398311E-1,8.979454637E-1
1.615535202E0,-5.561764240E-1,5.335750580E-1,8.984035850E-1
1.617888743E0,-5.373928547E-1,4.940227270E-1,9.013051391E-1
1.620242285E0,-5.196782947E-1,4.605788291E-1,8.991671801E-1
1.622595827E0,-4.970769584E-1,4.341596961E-1,8.947384953E-1
1.624949368E0,-4.746283293E-1,4.185830951E-1,8.889354467E-1
1.627302910E0,-4.494308829E-1,4.042281806E-1,8.783983588E-1
1.629656452E0,-4.233171642E-1,3.972034156E-1,8.689302206E-1
1.632010046E0,-3.982724249E-1,3.923166394E-1,8.583931327E-1
1.634363587E0,-3.732276857E-1,3.924693763E-1,8.464815617E-1
1.636717129E0,-3.495573401E-1,3.972034156E-1,8.333483934E-1
1.639070671E0,-3.319954872E-1,4.080459774E-1,8.200624585E-1
1.641424212E0,-3.170297146E-1,4.224008918E-1,8.104416132E-1
1.643777754E0,-3.032856584E-1,4.402681589E-1,7.957812548E-1
1.646131296E0,-2.958027720E-1,4.630222321E-1,7.823426127E-1
1.648484837E0,-2.895416021E-1,4.941754341E-1,7.689039707E-1
1.650838379E0,-2.846548259E-1,5.263976455E-1,7.540909648E-1
1.653191921E0,-2.822114229E-1,5.659499764E-1,7.404996157E-1
1.655545462E0,-2.835858464E-1,6.090146899E-1,7.281299233E-1
1.657899004E0,-2.835858464E-1,6.545228362E-1,7.133168578E-1
1.660252546E0,-2.851129472E-1,7.059867382E-1,7.007945180E-1
1.662606087E0,-2.913741469E-1,7.574505806E-1,6.870504618E-1
1.664959629E0,-2.990097404E-1,8.101361990E-1,6.769714952E-1
1.667313171E0,-3.080197275E-1,8.640434742E-1,6.667397618E-1
1.669666712E0,-3.168770075E-1,9.202414155E-1,6.566607952E-1
1.672020254E0,-3.283303976E-1,9.753703475E-1,6.464291215E-1
1.674373796E0,-3.397837877E-1,1.031568289E0,6.400152445E-1
1.676727337E0,-3.524588645E-1,1.085475564E0,6.322268844E-1
1.679080931E0,-3.651339412E-1,1.144116879E0,6.256603003E-1
1.681434421E0,-3.828485310E-1,1.203979969E0,6.215370893E-1
1.683788014E0,-3.943018913E-1,1.259108901E0,6.149705052E-1
1.686141556E0,-4.106420577E-1,1.317750216E0,6.071822047E-1
1.688495098E0,-4.295783341E-1,1.375169873E0,6.006155610E-1
1.690848639E0,-4.459185004E-1,1.432589531E0,5.903838873E-1
1.693202181E0,-4.636330605E-1,1.490009189E0,5.799994469E-1
1.695555723E0,-4.848600030E-1,1.544985414E0,5.697677732E-1
1.697909264E0,-5.050179958E-1,1.600114346E0,5.606050491E-1
1.700262806E0,-5.225798488E-1,1.652647257E0,5.491516590E-1
1.702616348E0,-5.438067913E-1,1.702889442E0,5.389199853E-1
1.704969889E0,-5.662553906E-1,1.748244882E0,5.273138881E-1
1.707323431E0,-5.850389600E-1,1.792531252E0,5.146388412E-1
1.709676973E0,-6.048914790E-1,1.835443258E0,5.019637346E-1
1.712030514E0,-6.235223413E-1,1.871330619E0,4.868452549E-1
1.714384056E0,-6.397097707E-1,1.907065153E0,4.743228853E-1
1.716737598E0,-6.545228362E-1,1.934553266E0,4.592044353E-1
1.719091139E0,-6.656708121E-1,1.960819721E0,4.442386627E-1
1.721444681E0,-6.754443645E-1,1.979755998E0,4.257605374E-1
1.723798223E0,-6.801784039E-1,1.997623205E0,4.097257853E-1
1.726151764E0,-6.788040400E-1,2.007244110E0,3.936910629E-1
1.728505306E0,-6.786513329E-1,2.011825562E0,3.802524209E-1
1.730858848E0,-6.734591126E-1,2.011825562E0,3.631486893E-1
1.733212389E0,-6.656708121E-1,2.010603666E0,3.510844707E-1
1.735565931E0,-6.555918455E-1,2.003273487E0,3.402419090E-1
1.737919525E0,-6.429167390E-1,1.994874477E0,3.293993771E-1
1.740273066E0,-6.277982593E-1,1.982962966E0,3.199312389E-1
1.742626608E0,-6.090146899E-1,1.968608022E0,3.116848171E-1
1.744980150E0,-5.902311802E-1,1.949366331E0,3.071034551E-1
1.747333691E0,-5.676298141E-1,1.927833915E0,2.988570333E-1
1.749687233E0,-5.460974574E-1,1.903858185E0,2.895416021E-1
1.752040775E0,-5.260922313E-1,1.878813505E0,2.849602401E-1
1.754394316E0,-4.984513521E-1,1.853615999E0,2.756448388E-1
1.756747858E0,-4.746283293E-1,1.827349544E0,2.687727809E-1
1.759101400E0,-4.494308829E-1,1.803373814E0,2.606790662E-1
1.761454941E0,-4.243861437E-1,1.778176427E0,2.513636351E-1
1.763808483E0,-3.991886973E-1,1.757865667E0,2.444916219E-1
1.766162025E0,-3.729222417E-1,1.736333370E0,2.338017821E-1
1.768515566E0,-3.442124426E-1,1.718466043E0,2.293731421E-1
1.770869108E0,-3.191677034E-1,1.701667786E0,2.237228155E-1
1.773222650E0,-2.929012477E-1,1.687312841E0,2.192941606E-1
1.775576191E0,-2.629697323E-1,1.675401330E0,2.136438340E-1
1.777929733E0,-2.342599183E-1,1.662420869E0,2.104368806E-1
1.780283275E0,-2.031067163E-1,1.652952671E0,2.060082406E-1
1.782636816E0,-1.745496094E-1,1.649440289E0,2.015796006E-1
1.784990358E0,-1.447708011E-1,1.645927906E0,1.982199401E-1
1.787343952E0,-1.186570823E-1,1.644706249E0,1.974563748E-1
1.789697493E0,-9.254335612E-2,1.648524046E0,1.953184158E-1
1.792051035E0,-6.658235192E-2,1.652189136E0,1.945548505E-1
1.794404577E0,-4.184303805E-2,1.664253354E0,1.948602796E-1
1.796758118E0,-1.710372418E-2,1.674026966E0,1.951656938E-1
1.799111660E0,3.817795310E-3,1.688381791E0,1.965401024E-1
1.801465202E0,2.855710872E-2,1.707776189E0,1.980672181E-1
1.803818743E0,4.810422286E-2,1.728239655E0,1.982199401E-1
1.806172285E0,6.795676053E-2,1.746259570E0,1.973036677E-1
1.808525827E0,8.887827396E-2,1.767944694E0,1.962346882E-1
1.810879368E0,1.049130186E-1,1.788408041E0,1.927223057E-1
1.813232910E0,1.259872466E-1,1.808871388E0,1.867665499E-1
1.815586452E0,1.432436854E-1,1.828113079E0,1.795890927E-1
1.817939993E0,1.582094431E-1,1.847202063E0,1.711899489E-1
1.820293535E0,1.768402755E-1,1.862778664E0,1.579040140E-1
1.822647077E0,1.867665499E-1,1.878355265E0,1.470614821E-1
1.825000618E0,1.968455315E-1,1.893931985E0,1.336228400E-1
1.827354160E0,2.069245130E-1,1.904621720E0,1.240019947E-1
1.829707702E0,2.144073844E-1,1.915464282E0,1.142284349E-1
1.832061243E0,2.206685692E-1,1.926154137E0,1.056765765E-1
1.834414785E0,2.257080674E-1,1.936996698E0,9.712471068E-2
1.836768379E0,2.305948436E-1,1.947686434E0,9.345962852E-2
1.839121868E0,2.368560284E-1,1.957307339E0,8.612946421E-2
1.841475410E0,2.431172132E-1,1.966928124E0,7.895200700E-2
1.843829004E0,2.481566966E-1,1.977617979E0,7.284353673E-2
1.846182546E0,2.544178963E-1,1.986017108E0,6.184828654E-2
1.848536087E0,2.620534599E-1,1.993194580E0,5.085303262E-2
1.850889629E0,2.683146596E-1,2.001593828E0,4.001049697E-2
1.853243171E0,2.771719396E-1,2.011061907E0,2.535016090E-2
1.855596712E0,2.884726226E-1,2.015795946E0,1.084253844E-2
1.857950254E0,2.974826097E-1,2.021751642E0,-3.817795310E-3
1.860303796E0,3.087832928E-1,2.031219959E0,-1.954711229E-2
1.862657337E0,3.200839758E-1,2.038397312E0,-3.542914242E-2
1.865010879E0,3.278722763E-1,2.043131351E0,-5.360184610E-2
1.867364421E0,3.429907262E-1,2.050308943E0,-7.055285573E-2
1.869717962E0,3.544441164E-1,2.053821087E0,-8.887827396E-2
1.872071504E0,3.683409095E-1,2.054890156E0,-1.046075895E-1
1.874425046E0,3.822376728E-1,2.057333469E0,-1.215586066E-1
1.876778587E0,3.985778391E-1,2.057180882E0,-1.371352077E-1
1.879132129E0,4.150707126E-1,2.055959225E0,-1.565296054E-1
1.881485671E0,4.326325655E-1,2.052294016E0,-1.734806150E-1
1.883839212E0,4.515688419E-1,2.046338320E0,-1.902789176E-1
1.886192754E0,4.705050886E-1,2.036717415E0,-2.070772201E-1
1.888546296E0,4.894413650E-1,2.028318405E0,-2.226538211E-1
1.890899837E0,5.059342384E-1,2.015032291E0,-2.383831441E-1
1.893253379E0,5.212054253E-1,1.999455810E0,-2.551814318E-1
1.895606921E0,5.352548957E-1,1.978992462E0,-2.733541429E-1
1.897960462E0,5.519005060E-1,1.957307339E0,-2.925958335E-1
1.900314056E0,5.671716928E-1,1.938065648E0,-3.106158376E-1
1.902667598E0,5.825955868E-1,1.915158868E0,-3.298575282E-1
1.905021139E0,5.992411375E-1,1.892404795E0,-3.504736125E-1
1.907374681E0,6.146650314E-1,1.868276358E0,-3.746020794E-1
1.909728223E0,6.288672686E-1,1.844147921E0,-3.999522328E-1
1.912081764E0,6.468872428E-1,1.814063668E0,-4.240806997E-1
1.914435306E0,6.623111367E-1,1.786422849E0,-4.482091665E-1
1.916788848E0,6.765133142E-1,1.756338596E0,-4.724903405E-1
1.919142389E0,6.908682585E-1,1.726254344E0,-4.953971207E-1
1.921495931E0,7.062921524E-1,1.693726778E0,-5.195255876E-1
1.923849473E0,7.192726731E-1,1.666085839E0,-5.387672782E-1
1.926203014E0,7.322531343E-1,1.633558273E0,-5.606050491E-1
1.928556556E0,7.452336550E-1,1.602405071E0,-5.810684562E-1
1.930910098E0,7.568397522E-1,1.574611545E0,-6.015318632E-1
1.933263639E0,7.649334669E-1,1.546970725E0,-6.233696342E-1
1.935617181E0,7.716528177E-1,1.520398855E0,-6.452074051E-1
1.937970723E0,7.783721089E-1,1.493979692E0,-6.646018028E-1
1.940324264E0,7.837170362E-1,1.469851255E0,-6.827745438E-1
1.942677806E0,7.855495811E-1,1.444501042E0,-7.059867382E-1
1.945031348E0,7.873821259E-1,1.421594262E0,-7.255338430E-1
1.947384889E0,7.864658237E-1,1.401130915E0,-7.437065244E-1
1.949738431E0,7.844805717E-1,1.379445791E0,-7.656970620E-1
1.952091973E0,7.776085734E-1,1.362494826E0,-7.890619636E-1
1.954445514E0,7.693621516E-1,1.346612811E0,-8.087617755E-1
1.956799108E0,7.586722970E-1,1.332105160E0,-8.270871639E-1
1.959152650E0,7.453863621E-1,1.316375852E0,-8.457180262E-1
1.961506191E0,7.296570539E-1,1.301715493E0,-8.629744649E-1
1.963859733E0,7.127060294E-1,1.290720224E0,-8.840487003E-1
1.966213275E0,6.920899153E-1,1.279724956E0,-9.037485123E-1
1.968566816E0,6.737645268E-1,1.271173120E0,-9.236010313E-1
1.970920358E0,6.543701291E-1,1.260177851E0,-9.422318935E-1
1.973273900E0,6.349757314E-1,1.251473308E0,-9.620844126E-1
1.975627441E0,6.142069101E-1,1.244143128E0,-9.782719016E-1
1.977980983E0,5.934380889E-1,1.235591292E0,-9.969027042E-1
1.980334525E0,5.714476109E-1,1.223374367E0,-1.011868477E0
1.982688066E0,5.482354164E-1,1.214822531E0,-1.028055906E0
1.985041608E0,5.274665952E-1,1.201383829E0,-1.041800022E0
1.987395150E0,5.028799772E-1,1.186876178E0,-1.053100705E0
1.989748691E0,4.821111858E-1,1.173437595E0,-1.063179612E0
1.992102233E0,4.563029110E-1,1.155264854E0,-1.070815206E0
1.994455775E0,4.355340898E-1,1.136023164E0,-1.079519868E0
1.996809316E0,4.158342779E-1,1.119072199E0,-1.083490372E0
1.999162858E0,3.950654566E-1,1.099830508E0,-1.088529825E0
2.001516400E0,3.753656447E-1,1.079214454E0,-1.092500329E0
2.003869941E0,3.556658030E-1,1.059972763E0,-1.095096469E0
2.006223483E0,3.397837877E-1,1.038287640E0,-1.097692490E0
2.008577025E0,3.213056624E-1,1.019045949E0,-1.097845197E0
2.010930566E0,3.066453338E-1,9.949174523E-1,-1.100441337E0
2.013284108E0,2.932066917E-1,9.721634388E-1,-1.104259133E0
2.015637702E0,2.785463631E-1,9.541434050E-1,-1.103190184E0
2.017991243E0,2.663294077E-1,9.312366247E-1,-1.106855273E0
2.020344785E0,2.527380586E-1,9.119949341E-1,-1.107007980E0
2.022698327E0,2.417428046E-1,8.939749599E-1,-1.107160687E0
2.025051868E0,2.283041626E-1,8.735115528E-1,-1.107160687E0
2.027405410E0,2.147128135E-1,8.554915786E-1,-1.107313395E0
2.029758952E0,2.049392611E-1,8.374716043E-1,-1.106244445E0
2.032112493E0,1.913478971E-1,8.182299137E-1,-1.103801012E0
2.034466035E0,1.791309565E-1,8.014315963E-1,-1.101510286E0
2.036819577E0,1.679829955E-1,7.821899056E-1,-1.095554590E0
2.039173118E0,1.531699449E-1,7.676823139E-1,-1.092042208E0
2.041526660E0,1.394258887E-1,7.508839965E-1,-1.084712029E0
2.043880202E0,1.258345395E-1,7.365291119E-1,-1.079977989E0
2.046233743E0,1.097997949E-1,7.232431769E-1,-1.075243831E0
2.048587285E0,9.605573118E-2,7.148439884E-1,-1.070509791E0
2.050940827E0,7.986827940E-2,7.064448595E-1,-1.062110662E0
2.053294368E0,6.505523622E-2,6.945333481E-1,-1.054933190E0
2.055647910E0,4.764608666E-2,6.884248853E-1,-1.050351858E0
2.058001452E0,3.023693897E-2,6.847597957E-1,-1.044396043E0
2.060354993E0,1.282779220E-2,6.800256968E-1,-1.038593054E0
2.062708535E0,-3.512371797E-3,6.775823236E-1,-1.032637239E0
2.065062077E0,-1.847812906E-2,6.726955175E-1,-1.023016453E0
2.067415671E0,-3.588727489E-2,6.726955175E-1,-1.017213345E0
2.069769212E0,-5.344913527E-2,6.751389503E-1,-1.010035992E0
2.072122754E0,-6.719319522E-2,6.763606071E-1,-1.001636744E0
2.074476296E0,-8.338065445E-2,6.798729897E-1,-9.946120381E-1
2.076829837E0,-1.009425074E-1,6.833853722E-1,-9.863656163E-1
2.079183379E0,-1.160609797E-1,6.894938350E-1,-9.755230546E-1
2.081536921E0,-1.298050433E-1,6.942279339E-1,-9.683456421E-1
2.083890462E0,-1.449235082E-1,7.038487792E-1,-9.600991607E-1
2.086244004E0,-1.563768983E-1,7.146912813E-1,-9.504783154E-1
2.088597546E0,-1.678302884E-1,7.278245091E-1,-9.408574700E-1
2.090951087E0,-1.779092699E-1,7.386670709E-1,-9.336800575E-1
2.093304629E0,-1.869192570E-1,7.519529462E-1,-9.216157794E-1
2.095658171E0,-1.971509457E-1,7.675296068E-1,-9.083298445E-1
2.098011712E0,-2.098260373E-1,7.808154821E-1,-8.951966763E-1
2.100365254E0,-2.200577259E-1,7.939487100E-1,-8.806890249E-1
2.102718796E0,-2.316638231E-1,8.096780181E-1,-8.661814332E-1
2.105072337E0,-2.443388999E-1,8.228112459E-1,-8.516737819E-1
2.107425879E0,-2.545706034E-1,8.348754644E-1,-8.373188972E-1
2.109779421E0,-2.672456801E-1,8.434273601E-1,-8.203678727E-1
2.112132962E0,-2.786990702E-1,8.530482054E-1,-8.083036542E-1
2.114486504E0,-2.890834510E-1,8.638907075E-1,-7.913526297E-1
2.116840046E0,-3.016058207E-1,8.710681796E-1,-7.792884111E-1
2.119193587E0,-3.144336343E-1,8.783983588E-1,-7.647807598E-1
2.121547129E0,-3.271087110E-1,8.855758309E-1,-7.502731681E-1
2.123900671E0,-3.385621011E-1,8.904625773E-1,-7.357655168E-1
2.126254212E0,-3.486410677E-1,8.964183331E-1,-7.200362086E-1
2.128607754E0,-3.576510847E-1,9.013051391E-1,-7.067502737E-1
2.130961348E0,-3.652866483E-1,9.049702287E-1,-6.933116317E-1
2.133314889E0,-3.742966652E-1,9.086353183E-1,-6.800256968E-1
2.135668431E0,-3.819322586E-1,9.135220647E-1,-6.642963886E-1
2.138021973E0,-3.872771561E-1,9.171871543E-1,-6.508577466E-1
2.140375514E0,-3.910949528E-1,9.208522439E-1,-6.374191046E-1
2.142729056E0,-3.962871730E-1,9.245173335E-1,-6.265766025E-1
2.145082598E0,-3.978142738E-1,9.245173335E-1,-6.143596172E-1
2.147436139E0,-4.005630910E-1,9.306257963E-1,-6.021426916E-1
2.149789681E0,-4.019374847E-1,9.295567870E-1,-5.899257660E-1
2.152143223E0,-4.046863019E-1,9.332218766E-1,-5.789304972E-1
2.154496764E0,-4.036173224E-1,9.356653094E-1,-5.691569448E-1
2.156850306E0,-4.025483429E-1,9.358180165E-1,-5.569399595E-1
2.159203848E0,-4.014793634E-1,9.345963001E-1,-5.482354164E-1
2.161557389E0,-3.978142738E-1,9.323056340E-1,-5.384618640E-1
2.163910931E0,-3.943018913E-1,9.300149679E-1,-5.273138881E-1
2.166264473E0,-3.944546282E-1,9.275715351E-1,-5.175403357E-1
2.168618014E0,-3.909422457E-1,9.265025854E-1,-5.053234100E-1
2.170971556E0,-3.909422457E-1,9.182561636E-1,-4.990622103E-1
2.173325098E0,-3.923166394E-1,9.133693576E-1,-4.905103445E-1
2.175678639E0,-3.862081766E-1,9.051229358E-1,-4.805840850E-1
2.178032181E0,-3.825430870E-1,9.003888369E-1,-4.720322192E-1
2.180385723E0,-3.764346242E-1,8.933641315E-1,-4.657710493E-1
2.182739264E0,-3.715478480E-1,8.874083757E-1,-4.570664763E-1
2.185092806E0,-3.654393852E-1,8.838959932E-1,-4.495835900E-1
2.187446400E0,-3.593308926E-1,8.754968047E-1,-4.445441067E-1
2.189799889E0,-3.544441164E-1,8.684720993E-1,-4.347705245E-1
2.192153431E0,-3.507790267E-1,8.625163436E-1,-4.260659516E-1
2.194507025E0,-3.446705639E-1,8.565605879E-1,-4.161396921E-1
2.196860566E0,-3.411581814E-1,8.493831158E-1,-4.075878263E-1
2.199214108E0,-3.387148082E-1,8.411366940E-1,-3.964398801E-1
2.201567650E0,-3.350497186E-1,8.328902125E-1,-3.865135908E-1
2.203921191E0,-3.339807391E-1,8.244910836E-1,-3.730749488E-1
2.206274733E0,-3.341334462E-1,8.174663186E-1,-3.607053161E-1
2.208628275E0,-3.342861533E-1,8.102889061E-1,-3.509317636E-1
2.210981816E0,-3.370349705E-1,8.043331504E-1,-3.374931216E-1
2.213335358E0,-3.358132839E-1,7.973083854E-1,-3.277195692E-1
2.215688900E0,-3.347443044E-1,7.876875401E-1,-3.177932799E-1
2.218042441E0,-3.361186981E-1,7.817317843E-1,-3.067980409E-1
2.220395983E0,-3.374931216E-1,7.769976854E-1,-2.933593988E-1
2.222749525E0,-3.388675153E-1,7.747070193E-1,-2.811424434E-1
2.225103066E0,-3.416163325E-1,7.724163532E-1,-2.701472044E-1
2.227456608E0,-3.417690396E-1,7.736380696E-1,-2.614426315E-1
2.229810150E0,-3.419217467E-1,7.750124335E-1,-2.492256761E-1
2.232163691E0,-3.420744538E-1,7.774558663E-1,-2.370087355E-1
2.234517233E0,-3.436015844E-1,7.798992395E-1,-2.247917950E-1
2.236870775E0,-3.425326049E-1,7.847860456E-1,-2.162399292E-1
2.239224316E0,-3.426853120E-1,7.931851745E-1,-2.064663768E-1
2.241577858E0,-3.417690396E-1,8.017370105E-1,-1.966928244E-1
2.243931400E0,-3.407000601E-1,8.148702383E-1,-1.881409585E-1
2.246284941E0,-3.410054743E-1,8.281561732E-1,-1.809635013E-1
2.248638535E0,-3.399364948E-1,8.426637650E-1,-1.724116355E-1
2.250992077E0,-3.426853120E-1,8.547280431E-1,-1.614163816E-1
2.253345618E0,-3.454341292E-1,8.690829277E-1,-1.530172378E-1
2.255699160E0,-3.481829464E-1,8.860339522E-1,-1.444653720E-1
2.258052702E0,-3.521534503E-1,8.991671801E-1,-1.360662282E-1
2.260406243E0,-3.573456407E-1,9.112313986E-1,-1.275143623E-1
2.262759785E0,-3.623851240E-1,9.232956171E-1,-1.215586066E-1
2.265113327E0,-3.651339412E-1,9.364288449E-1,-1.143811494E-1
2.267466868E0,-3.677300513E-1,9.472714067E-1,-1.107160673E-1
2.269820410E0,-3.729222417E-1,9.544488192E-1,-1.035386100E-1
2.272173952E0,-3.730749488E-1,9.652913809E-1,-9.865183383E-2
2.274527493E0,-3.744493723E-1,9.713998437E-1,-9.498675168E-2
2.276881035E0,-3.758237660E-1,9.761339426E-1,-8.765657991E-2
2.279234577E0,-3.759764731E-1,9.797990322E-1,-8.154810965E-2
2.281588118E0,-3.759764731E-1,9.846857786E-1,-7.666133344E-2
2.283941660E0,-3.749074936E-1,9.918632507E-1,-7.055285573E-2
2.286295202E0,-3.750602305E-1,9.955283403E-1,-6.322269142E-2
2.288648743E0,-3.739912212E-1,9.991934299E-1,-5.344913527E-2
2.291002285E0,-3.729222417E-1,1.005301833E0,-4.734066129E-2
2.293355827E0,-3.718532622E-1,1.007745266E0,-3.878879920E-2
2.295709368E0,-3.720059693E-1,1.012632012E0,-2.779355086E-2
2.298062910E0,-3.723114133E-1,1.016297102E0,-1.679829881E-2
2.300416452E0,-3.712424338E-1,1.021183848E0,-7.024743594E-3
2.302769993E0,-3.689517379E-1,1.026070714E0,6.566607859E-3
2.305123535E0,-3.668137789E-1,1.032179117E0,2.000524849E-2
2.307477077E0,-3.671191931E-1,1.037065983E0,3.466558084E-2
2.309830671E0,-3.684936166E-1,1.041800022E0,4.566083103E-2
2.312184212E0,-3.687990308E-1,1.051573515E0,5.909947306E-2
2.314537754E0,-3.715478480E-1,1.058903694E0,7.360709459E-2
2.316891296E0,-3.707842827E-1,1.072189689E0,9.071081877E-2
2.319244837E0,-3.723114133E-1,1.081810474E0,1.041494608E-1
2.321598379E0,-3.750602305E-1,1.091584086E0,1.188097894E-1
2.323951921E0,-3.765873313E-1,1.101204872E0,1.346918195E-1
2.326305462E0,-3.794888556E-1,1.109756708E0,1.517955512E-1
2.328659004E0,-3.822376728E-1,1.114643574E0,1.675248593E-1
2.331012546E0,-3.849864900E-1,1.123042703E0,1.834068894E-1
2.333366087E0,-3.891097009E-1,1.127929449E0,2.005106062E-1
2.335719629E0,-3.918585181E-1,1.132968903E0,2.212794125E-1
2.338073171E0,-3.959817290E-1,1.136633992E0,2.383831441E-1
2.340426712E0,-3.962871730E-1,1.145033240E0,2.554868758E-1
2.342780254E0,-4.002576768E-1,1.150072694E0,2.736595869E-1
2.345133796E0,-4.017847776E-1,1.154959440E0,2.883199155E-1
2.347487337E0,-4.034646153E-1,1.164580345E0,3.054236174E-1
2.349840879E0,-4.036173224E-1,1.165954709E0,3.188622594E-1
2.352194421E0,-4.051444530E-1,1.168398142E0,3.310792148E-1
2.354547962E0,-4.040754735E-1,1.173284888E0,3.446705639E-1
2.356901504E0,-4.056025743E-1,1.175728321E0,3.568875194E-1
2.359255046E0,-4.069769979E-1,1.176949978E0,3.654393852E-1
2.361608587E0,-4.046863019E-1,1.172215939E0,3.752129376E-1
2.363962129E0,-4.060607255E-1,1.172368646E0,3.849864900E-1
2.366315671E0,-4.072824121E-1,1.168703556E0,3.923166394E-1
2.368669264E0,-4.062134326E-1,1.160457134E0,4.034646153E-1
2.371022806E0,-4.049917459E-1,1.153279662E0,4.083513916E-1
2.373376348E0,-4.039227366E-1,1.146102190E0,4.169032574E-1
2.375729889E0,-4.027010500E-1,1.135412335E0,4.256078303E-1
2.378083431E0,-3.990359604E-1,1.127165914E0,4.355340898E-1
2.380436973E0,-3.955236077E-1,1.117545009E0,4.465293586E-1
2.382790514E0,-3.930802047E-1,1.112963676E0,4.564556181E-1
2.385144056E0,-3.907895386E-1,1.107007980E0,4.674508572E-1
2.387497598E0,-3.859027624E-1,1.101052165E0,4.761554301E-1
2.389851139E0,-3.836120665E-1,1.097539783E0,4.848600030E-1
2.392204681E0,-3.775036037E-1,1.091584086E0,4.934118688E-1
2.394558223E0,-3.738385141E-1,1.089293361E0,4.996730685E-1
2.396911764E0,-3.677300513E-1,1.088071704E0,5.059342384E-1
2.399265306E0,-3.628432751E-1,1.084559321E0,5.095993280E-1
2.401618848E0,-3.553603888E-1,1.082268596E0,5.121954083E-1
2.403972389E0,-3.492519259E-1,1.079825282E0,5.147915483E-1
2.406325931E0,-3.442124426E-1,1.076312900E0,5.184566379E-1
2.408679473E0,-3.405473530E-1,1.075091124E0,5.186093450E-1
2.411033014E0,-3.356605768E-1,1.077534556E0,5.210527182E-1
2.413386556E0,-3.319954872E-1,1.077687263E0,5.234960914E-1
2.415740098E0,-3.283303976E-1,1.078908920E0,5.260922313E-1
2.418093639E0,-3.258870244E-1,1.082421303E0,5.273138881E-1
2.420447181E0,-3.220692277E-1,1.083643079E0,5.260922313E-1
2.422800723E0,-3.184041381E-1,1.090820551E0,5.248705149E-1
2.425154316E0,-3.159607351E-1,1.097997904E0,5.236487985E-1
2.427507806E0,-3.135173619E-1,1.106549859E0,5.248705149E-1
2.429861348E0,-3.112266660E-1,1.118461370E0,5.224271417E-1
2.432214941E0,-3.124483824E-1,1.129303813E0,5.199837089E-1
2.434568483E0,-3.126010895E-1,1.141215444E0,5.224271417E-1
2.436922025E0,-3.113794029E-1,1.154501319E0,5.222744346E-1
2.439275566E0,-3.127537966E-1,1.167634487E0,5.222744346E-1
2.441629108E0,-3.141281903E-1,1.180767775E0,5.257867575E-1
2.443982650E0,-3.167243004E-1,1.198787689E0,5.257867575E-1
2.446336191E0,-3.193204105E-1,1.214364409E0,5.280774832E-1
2.448689733E0,-3.208475113E-1,1.230093718E0,5.341859460E-1
2.451043275E0,-3.234436214E-1,1.244448543E0,5.376983285E-1
2.453396816E0,-3.249707520E-1,1.262468576E0,5.413633585E-1
2.455750358E0,-3.263451457E-1,1.275601745E0,5.460974574E-1
2.458103900E0,-3.264978528E-1,1.287665963E0,5.522059202E-1
2.460457441E0,-3.278722763E-1,1.300951958E0,5.558710098E-1
2.462810983E0,-3.280249834E-1,1.311794519E0,5.630484819E-1
2.465164525E0,-3.283303976E-1,1.323858738E0,5.703786016E-1
2.467518066E0,-3.272614181E-1,1.335770249E0,5.764871240E-1
2.469871608E0,-3.261924386E-1,1.346612811E0,5.813738704E-1
2.472225150E0,-3.251234591E-1,1.359898686E0,5.862606764E-1
2.474578691E0,-3.228327632E-1,1.368297815E0,5.948125124E-1
2.476932233E0,-3.193204105E-1,1.378071427E0,6.009209752E-1
2.479285775E0,-3.119902313E-1,1.387692213E0,6.059604883E-1
2.481639316E0,-3.096995652E-1,1.396091461E0,6.108472347E-1
2.483992858E0,-3.048127890E-1,1.406933904E0,6.157340407E-1
2.486346400E0,-2.962609231E-1,1.414264083E0,6.183301210E-1
2.488699941E0,-2.889307439E-1,1.418998241E0,6.232169271E-1
2.491053483E0,-2.828222811E-1,1.423884988E0,6.270347238E-1
2.493407025E0,-2.730487287E-1,1.425106645E0,6.308525205E-1
2.495760618E0,-2.643441558E-1,1.426481009E0,6.357392669E-1
2.498114108E0,-2.557922900E-1,1.424190402E0,6.420004964E-1
2.500467702E0,-2.446443290E-1,1.422968745E0,6.459710002E-1
2.502821243E0,-2.360924631E-1,1.420678020E0,6.496360302E-1
2.505174785E0,-2.298312783E-1,1.417165637E0,6.522321701E-1
2.507528327E0,-2.186833173E-1,1.411209822E0,6.572716236E-1
2.509881868E0,-2.101314515E-1,1.405254126E0,6.623111367E-1
2.512235410E0,-2.014268786E-1,1.398076653E0,6.662816405E-1
2.514588952E0,-1.915006191E-1,1.388608575E0,6.676560640E-1
2.516942493E0,-1.827960461E-1,1.380209327E0,6.678087711E-1
2.519296035E0,-1.727170646E-1,1.368297815E0,6.691831946E-1
2.521649577E0,-1.640124917E-1,1.352721214E0,6.717792749E-1
2.524003118E0,-1.539335102E-1,1.340809703E0,6.720846891E-1
2.526356660E0,-1.464506239E-1,1.325233102E0,6.710157394E-1
2.528710202E0,-1.414111406E-1,1.308434844E0,6.723901033E-1
2.531063743E0,-1.362189353E-1,1.290567517E0,6.736118197E-1
2.533417285E0,-1.262926757E-1,1.270104170E0,6.751389503E-1
2.535770827E0,-1.211004704E-1,1.252236843E0,6.704048514E-1
2.538124368E0,-1.159082651E-1,1.230551839E0,6.693359017E-1
2.540477910E0,-1.094943732E-1,1.206575990E0,6.670452356E-1
2.542831452E0,-1.030804738E-1,1.186265349E0,6.635328531E-1
2.545184993E0,-9.910997003E-2,1.163358569E0,6.575770974E-1
2.547538535E0,-9.025268257E-2,1.138313890E0,6.528429985E-1
2.549892077E0,-8.368607610E-2,1.113116384E0,6.482616663E-1
2.552245618E0,-7.727217674E-2,1.091431379E0,6.410841942E-1
2.554599212E0,-7.207997888E-2,1.068677306E0,6.339067221E-1
2.556952702E0,-6.551336497E-2,1.046992183E0,6.279509664E-1
2.559306296E0,-6.276455522E-2,1.026528835E0,6.193991303E-1
2.561659837E0,-5.757235363E-2,1.003774762E0,6.109999418E-1
2.564013379E0,-5.482354015E-2,9.845330715E-1,6.050441861E-1
2.566366921E0,-5.085303262E-2,9.689564705E-1,5.978667736E-1
2.568720462E0,-4.932591692E-2,9.509364963E-1,5.893148780E-1
2.571074004E0,-4.535540938E-2,9.352071285E-1,5.809157491E-1
2.573427546E0,-4.398100078E-2,9.184088707E-1,5.748072863E-1
2.575781087E0,-4.489727318E-2,9.063445926E-1,5.662553906E-1
2.578134629E0,-4.474456236E-2,8.919897079E-1,5.590779781E-1
2.580488171E0,-4.566083103E-2,8.774821162E-1,5.493044257E-1
2.582841712E0,-4.795150831E-2,8.666395545E-1,5.395308137E-1
2.585195254E0,-4.642439261E-2,8.509102464E-1,5.297572613E-1
2.587548796E0,-4.611896724E-2,8.365553021E-1,5.199837089E-1
2.589902337E0,-4.703523964E-2,8.208259940E-1,5.065450668E-1
2.592255879E0,-4.688252881E-2,8.087617755E-1,4.969242513E-1
2.594609421E0,-5.024218559E-2,7.907418013E-1,4.871506989E-1
2.596962962E0,-4.871506989E-2,7.786775231E-1,4.724903405E-1
2.599316504E0,-5.207473040E-2,7.653915882E-1,4.602734149E-1
2.601670046E0,-5.436540768E-2,7.531746626E-1,4.480564594E-1
2.604023587E0,-5.528167635E-2,7.411104441E-1,4.358395338E-1
2.606377129E0,-5.741964281E-2,7.278245091E-1,4.248442650E-1
2.608730671E0,-5.955760926E-2,7.157602906E-1,4.112529159E-1
2.611084212E0,-6.306997687E-2,7.049177289E-1,3.990359604E-1
2.613437754E0,-6.413896382E-2,6.952968836E-1,3.892624080E-1
2.615791296E0,-6.872031838E-2,6.818582416E-1,3.758237660E-1
2.618144837E0,-6.719319522E-2,6.697940230E-1,3.623851240E-1
2.620498379E0,-6.566607952E-2,6.565080881E-1,3.477247953E-1
2.622851921E0,-6.642963737E-2,6.456655264E-1,3.293993771E-1
2.625205514E0,-6.612421572E-2,6.311579347E-1,3.136700690E-1
2.627559056E0,-6.322269142E-2,6.178719997E-1,2.953446507E-1
2.629912598E0,-6.291726977E-2,6.045860648E-1,2.806843221E-1
2.632266139E0,-6.001574174E-2,5.888567567E-1,2.611372173E-1
2.634619681E0,-5.711421743E-2,5.743491650E-1,2.441861928E-1
2.636973223E0,-5.543438718E-2,5.610632300E-1,2.258607745E-1
2.639326764E0,-5.253286287E-2,5.465555787E-1,2.075353563E-1
2.641680306E0,-4.856235534E-2,5.320479870E-1,1.930277348E-1
2.644033848E0,-4.443913698E-2,5.187620521E-1,1.747023165E-1
2.646387389E0,-4.153761268E-2,5.018110275E-1,1.565296054E-1
2.648740931E0,-3.741439432E-2,4.909684956E-1,1.369825006E-1
2.651094473E0,-3.329117596E-2,4.727957845E-1,1.188097894E-1
2.653448014E0,-3.023693897E-2,4.582881629E-1,9.559759498E-2
2.655801556E0,-2.733541466E-2,4.437805414E-1,7.482878864E-2
2.658155098E0,-2.565558441E-2,4.304946065E-1,5.299099907E-2
2.660508639E0,-2.260134928E-2,4.123218954E-1,2.855710872E-2
2.662862181E0,-1.969982497E-2,3.978142738E-1,2.901524538E-3
2.665215723E0,-1.786728203E-2,3.833066523E-1,-1.908897609E-2
2.667569264E0,-1.374406368E-2,3.663556576E-1,-4.337015375E-2
2.669922806E0,-1.557660475E-2,3.481829464E-1,-7.024743408E-2
2.672276348E0,-1.511846948E-2,3.324536085E-1,-9.223793447E-2
2.674629889E0,-1.588202827E-2,3.155026138E-1,-1.166718230E-1
2.676983431E0,-2.031067200E-2,2.961082160E-1,-1.411057115E-1
2.679336973E0,-1.969982497E-2,2.779355049E-1,-1.643179059E-1
2.681690514E0,-2.672456764E-2,2.585411072E-1,-1.852394342E-1
2.684044056E0,-3.237490356E-2,2.428117841E-1,-2.096733153E-1
2.686397598E0,-3.817795217E-2,2.246390730E-1,-2.305948436E-1
2.688751139E0,-4.382828996E-2,2.064663768E-1,-2.501419485E-1
2.691104681E0,-4.840964451E-2,1.944021434E-1,-2.696890533E-1
2.693458275E0,-5.299099907E-2,1.786728203E-1,-2.906105816E-1
2.695811816E0,-5.741964281E-2,1.640124917E-1,-3.126010895E-1
2.698165306E0,-6.200099736E-2,1.531699449E-1,-3.309265077E-1
2.700518900E0,-6.902574003E-2,1.397313178E-1,-3.506263196E-1
2.702872441E0,-7.101099193E-2,1.204896197E-1,-3.713951409E-1
2.705225983E0,-7.299624383E-2,1.035386100E-1,-3.921639323E-1
2.707579525E0,-7.635590434E-2,8.780929446E-2,-4.080459774E-1
2.709933066E0,-7.605048269E-2,7.085828483E-2,-4.227063060E-1
2.712286608E0,-7.818844914E-2,5.879404768E-2,-4.410317242E-1
2.714640150E0,-7.910472155E-2,4.779879749E-2,-4.556920528E-1
2.716993691E0,-7.635590434E-2,4.184303805E-2,-4.691306949E-1
2.719347233E0,-7.482878864E-2,3.924693540E-2,-4.801259339E-1
2.721700775E0,-7.085828483E-2,4.046862945E-2,-4.947862923E-1
2.724054316E0,-6.704048812E-2,4.275930673E-2,-5.082249045E-1
2.726407858E0,-6.062658876E-2,4.871506989E-2,-5.216635466E-1
2.728761400E0,-5.665608495E-2,5.222744122E-2,-5.387672782E-1
2.731114941E0,-5.146388337E-2,5.925218388E-2,-5.520532131E-1
2.733468483E0,-4.504998401E-2,6.642963737E-2,-5.679352283E-1
2.735822025E0,-4.230117425E-2,7.345438004E-2,-5.862606764E-1
2.738175566E0,-3.970507160E-2,8.063183725E-2,-6.035171151E-1
2.740529108E0,-3.451287001E-2,8.536590636E-2,-6.206207871E-1
2.742882650E0,-3.176405653E-2,8.887827396E-2,-6.377245188E-1
2.745236191E0,-2.779355086E-2,9.468132257E-2,-6.548282504E-1
2.747589733E0,-2.748812735E-2,9.941539168E-2,-6.731536984E-1
2.749943275E0,-2.473931387E-2,1.064401343E-1,-6.914790869E-1
2.752296816E0,-2.321219631E-2,1.111742035E-1,-7.085828185E-1
2.754650358E0,-2.428117767E-2,1.157555580E-1,-7.282826304E-1
2.757003900E0,-2.519745007E-2,1.192679256E-1,-7.453863621E-1
2.759357441E0,-2.489202656E-2,1.252236813E-1,-7.650861740E-1
2.761710983E0,-2.458660305E-2,1.310267299E-1,-7.846332788E-1
2.764064525E0,-2.687728032E-2,1.357607991E-1,-8.018897176E-1
2.766418118E0,-3.038965166E-2,1.403421611E-1,-8.203678727E-1
2.768771608E0,-3.390202299E-2,1.450762302E-1,-8.362498879E-1
2.771125202E0,-3.726168349E-2,1.484358907E-1,-8.547280431E-1
2.773478743E0,-4.199574888E-2,1.531699449E-1,-8.707627654E-1
2.775832285E0,-4.306473210E-2,1.566823274E-1,-8.854231238E-1
2.778185827E0,-4.779879749E-2,1.589729935E-1,-9.002361298E-1
2.780539368E0,-4.749337584E-2,1.637070626E-1,-9.148964882E-1
2.782892910E0,-4.856235534E-2,1.647760421E-1,-9.321529269E-1
2.785246452E0,-4.703523964E-2,1.634016484E-1,-9.468132257E-1
2.787599993E0,-4.672981426E-2,1.597365588E-1,-9.614735842E-1
2.789953535E0,-4.642439261E-2,1.572931707E-1,-9.773555994E-1
2.792307077E0,-4.367557913E-2,1.511846930E-1,-9.920159578E-1
2.794660618E0,-3.970507160E-2,1.462979168E-1,-1.007745266E0
2.797014160E0,-3.313846514E-2,1.377460510E-1,-1.022405624E0
2.799367702E0,-2.794626169E-2,1.281252056E-1,-1.039356589E0
2.801721243E0,-1.771457121E-2,1.197260618E-1,-1.055085897E0
2.804074785E0,-8.551862091E-3,1.052184403E-1,-1.070815206E0
2.806428327E0,-7.635590737E-4,8.842013776E-2,-1.084101200E0
2.808781868E0,6.872031838E-3,7.146912813E-2,-1.096165419E0
2.811135410E0,1.084253844E-2,5.467082933E-2,-1.103495598E0
2.813488952E0,1.603474095E-2,3.313846514E-2,-1.109451294E0
2.815842493E0,2.000524849E-2,9.162709117E-3,-1.109298587E0
2.818196035E0,2.015795931E-2,-1.007897966E-2,-1.106702566E0
2.820549577E0,2.015795931E-2,-3.405473381E-2,-1.103037477E0
2.822903118E0,1.771457121E-2,-5.803048983E-2,-1.096776247E0
2.825256660E0,1.664558798E-2,-8.078455180E-2,-1.089446068E0
2.827610202E0,1.038440317E-2,-9.987352788E-2,-1.080741525E0
2.829963743E0,7.941014133E-3,-1.166718230E-1,-1.072189689E0
2.832317285E0,2.901524538E-3,-1.298050433E-1,-1.061194420E0
2.834670827E0,2.748812549E-3,-1.441599578E-1,-1.051420808E0
2.837024368E0,1.527118147E-4,-1.511846930E-1,-1.041647315E0
2.839377910E0,-1.221694518E-3,-1.630962193E-1,-1.029277682E0
2.841731504E0,-2.596100792E-3,-1.702736765E-1,-1.018282413E0
2.844085046E0,-3.970507067E-3,-1.750077456E-1,-1.006065488E0
2.846438587E0,-4.123218823E-3,-1.797417998E-1,-9.938485026E-1
2.848792129E0,-4.275931045E-3,-1.844758689E-1,-9.802571535E-1
2.851145671E0,-3.206948051E-3,-1.879882365E-1,-9.680401683E-1
2.853499212E0,-3.359660041E-3,-1.915006191E-1,-9.594883323E-1
2.855852754E0,-2.290677279E-3,-1.913478971E-1,-9.471186996E-1
2.858206296E0,-1.221694518E-3,-1.913478971E-1,-9.361234307E-1
2.860559837E0,-1.374406274E-3,-1.864611208E-1,-9.287932515E-1
2.862913379E0,9.162708884E-4,-1.803526580E-1,-9.214630723E-1
2.865266921E0,7.635590737E-4,-1.731752008E-1,-9.177979827E-1
2.867620462E0,1.832541777E-3,-1.659977436E-1,-9.104678631E-1
2.869974004E0,1.679830020E-3,-1.539335102E-1,-9.055810571E-1
2.872327546E0,1.527118147E-3,-1.406475753E-1,-8.996253014E-1
2.874681087E0,1.374406274E-3,-1.262926757E-1,-8.935168386E-1
2.877034629E0,-5.039489828E-3,-1.142284349E-1,-8.875610828E-1
2.879388171E0,-1.160609815E-2,-9.620844573E-2,-8.754968047E-1
2.881741712E0,-1.939439960E-2,-7.818844914E-2,-8.622109294E-1
2.884095254E0,-2.962609194E-2,-6.123743951E-2,-8.464815617E-1
2.886448796E0,-3.878879920E-2,-3.955236077E-2,-8.270871639E-1
2.888802337E0,-5.054761097E-2,-2.153236605E-2,-8.040276766E-1
2.891155879E0,-6.337540597E-2,-3.512371797E-3,-7.846332788E-1
2.893509421E0,-7.513421029E-2,1.588202827E-2,-7.605048418E-1
2.895862962E0,-8.674030751E-2,3.756710514E-2,-7.398887277E-1
2.898216504E0,-9.834641218E-2,5.558710173E-2,-7.192726731E-1
2.900570046E0,-1.111742035E-1,7.375980914E-2,-6.975875497E-1
2.902923587E0,-1.203369126E-1,9.055810422E-2,-6.806365848E-1
2.905277129E0,-1.331647038E-1,1.050657257E-1,-6.587987542E-1
2.907630671E0,-1.447708011E-1,1.171299592E-1,-6.418477297E-1
2.909984212E0,-1.550024897E-1,1.243074164E-1,-6.248967648E-1
2.912337754E0,-1.688992679E-1,1.316375881E-1,-6.079457402E-1
2.914691296E0,-1.827960461E-1,1.340809762E-1,-5.922164321E-1
2.917044837E0,-1.968455315E-1,1.377460510E-1,-5.764871240E-1
2.919398379E0,-2.107423097E-1,1.389677525E-1,-5.607577562E-1
2.921751921E0,-2.258607745E-1,1.378987730E-1,-5.427377820E-1
2.924105462E0,-2.397575527E-1,1.354553849E-1,-5.270084739E-1
2.926459004E0,-2.536543310E-1,1.307213157E-1,-5.086830258E-1
2.928812546E0,-2.675510943E-1,1.308740228E-1,-4.894413650E-1
2.931166139E0,-2.826695740E-1,1.284306347E-1,-4.749337435E-1
2.933519629E0,-2.967190444E-1,1.273616552E-1,-4.555393457E-1
2.935873223E0,-3.130592108E-1,1.238492802E-1,-4.373666346E-1
2.938226764E0,-3.269560039E-1,1.226275861E-1,-4.191939235E-1
2.940580306E0,-3.420744538E-1,1.166718230E-1,-4.010212123E-1
2.942933848E0,-3.597890437E-1,1.107160673E-1,-3.816268146E-1
2.945287389E0,-3.761292100E-1,1.036913246E-1,-3.646758199E-1
2.947640931E0,-3.924693763E-1,9.773556143E-2,-3.452814221E-1
2.949994473E0,-4.100312293E-1,8.933641016E-2,-3.271087110E-1
2.952348014E0,-4.251496792E-1,8.093725890E-2,-3.113794029E-1
2.954701556E0,-4.414898455E-1,7.498150319E-2,-2.944283783E-1
2.957055098E0,-4.566083252E-1,6.673506647E-2,-2.799207568E-1
2.959408639E0,-4.705050886E-1,5.955760926E-2,-2.654131353E-1
2.961762181E0,-4.842491746E-1,5.711421743E-2,-2.496838123E-1
2.964115723E0,-4.993676245E-1,5.115845799E-2,-2.339545041E-1
2.966469264E0,-5.144860744E-1,4.886778072E-2,-2.194468826E-1
2.968822806E0,-5.296045542E-1,4.764608666E-2,-2.063136548E-1
2.971176348E0,-5.447230339E-1,4.764608666E-2,-1.930277348E-1
2.973529889E0,-5.598415136E-1,5.008947477E-2,-1.821851879E-1
2.975883431E0,-5.760289431E-1,5.008947477E-2,-1.727170646E-1
2.978236973E0,-5.899257660E-1,5.253286287E-2,-1.643179059E-1
2.980590514E0,-6.048914790E-1,5.604523420E-2,-1.559187621E-1
2.982944056E0,-6.212316751E-1,6.093201414E-2,-1.452289373E-1
2.985297598E0,-6.349757314E-1,6.444438547E-2,-1.380514801E-1
2.987651139E0,-6.488724947E-1,6.810946763E-2,-1.284306347E-1
2.990004681E0,-6.589514613E-1,7.650861889E-2,-1.163664013E-1
2.992358223E0,-6.681141853E-1,8.139539510E-2,-9.819369763E-2
2.994711764E0,-6.784985662E-1,9.345962852E-2,-7.513421029E-2
2.997065306E0,-6.852179170E-1,1.068982705E-1,-4.947862774E-2
2.999418848E0,-6.943806410E-1,1.226275861E-1,-1.786728203E-2
3.001772389E0,-7.038487792E-1,1.408002973E-1,2.107422985E-2
3.004125931E0,-7.159129977E-1,1.638597846E-1,6.245913357E-2
3.006479473E0,-7.279772162E-1,1.881409585E-1,1.111742035E-1
3.008833014E0,-7.426375747E-1,2.159345001E-1,1.586675793E-1
3.011186556E0,-7.598940134E-1,2.438807636E-1,2.096733153E-1
3.013540150E0,-7.744016051E-1,2.692309320E-1,2.596100867E-1
3.015893691E0,-7.953231335E-1,2.970244884E-1,3.057290614E-1
3.018247233E0,-8.136485219E-1,3.237490356E-1,3.518480062E-1
3.020600775E0,-8.280034661E-1,3.503209054E-1,3.920112252E-1
3.022954316E0,-8.400676847E-1,3.744493723E-1,4.297310412E-1
3.025307858E0,-8.481613994E-1,3.985778391E-1,4.601207078E-1
3.027661400E0,-8.550334573E-1,4.228590131E-1,4.880669713E-1
3.030014941E0,-8.593093753E-1,4.445441067E-1,5.147915483E-1
3.032368483E0,-8.635852933E-1,4.709632397E-1,5.354076028E-1
3.034722025E0,-8.652651310E-1,4.950917065E-1,5.573981404E-1
3.037075566E0,-8.670976758E-1,5.204418898E-1,5.793886185E-1
3.039429108E0,-8.687775135E-1,5.433486104E-1,5.975613594E-1
3.041782650E0,-8.742751479E-1,5.639647245E-1,6.218425035E-1
3.044136191E0,-8.809944391E-1,5.819846988E-1,6.474980712E-1
3.046489733E0,-8.878664970E-1,5.978667736E-1,6.754443645E-1
3.048843275E0,-8.970292211E-1,6.099309921E-1,7.046123147E-1
3.051196816E0,-9.063445926E-1,6.184828281E-1,7.375980616E-1
3.053550358E0,-9.168817401E-1,6.223006248E-1,7.728744745E-1
3.055903900E0,-9.286405444E-1,6.201626658E-1,8.095253110E-1
3.058257441E0,-9.378032684E-1,6.106945276E-1,8.449544907E-1
3.060610983E0,-9.481876493E-1,5.977140665E-1,8.802309036E-1
3.062964525E0,-9.585720897E-1,5.775560737E-1,9.158127308E-1
3.065318066E0,-9.663603902E-1,5.537330508E-1,9.463551044E-1
3.067671608E0,-9.727742672E-1,5.239542127E-1,9.758284688E-1
3.070025150E0,-9.791881442E-1,4.880669713E-1,1.003927469E0
3.072378691E0,-9.817842841E-1,4.546230733E-1,1.026070714E0
3.074732233E0,-9.881981611E-1,4.187358022E-1,1.049435616E0
3.077085775E0,-9.881981611E-1,3.817795515E-1,1.069135427E0
3.079439316E0,-9.894198179E-1,3.410054743E-1,1.083948493E0
3.081792858E0,-9.930849075E-1,3.040492237E-1,1.097539783E0
3.084133275E0,-9.930849075E-1,2.669402659E-1,1.109909415E0
3.086499941E0,-9.929322004E-1,2.286095917E-1,1.121057391E0
3.088853483E0,-9.927794933E-1,1.937913001E-1,1.127318621E0
3.091193952E0,-9.926267862E-1,1.591257155E-1,1.134801507E0
3.093560566E0,-9.936957955E-1,1.243074164E-1,1.138619304E0
3.095914108E0,-9.935430884E-1,9.437590092E-2,1.138772011E0
3.098254577E0,-9.932376146E-1,6.322269142E-2,1.140146375E0
3.100621191E0,-9.930849075E-1,3.084778599E-2,1.137855768E0
3.102974733E0,-9.940012097E-1,4.428642802E-3,1.136633992E0
3.105328327E0,-9.938485026E-1,-2.199050039E-2,1.131899953E0
3.107681868E0,-9.947647452E-1,-4.489727318E-2,1.125791550E0
3.110035410E0,-9.944593310E-1,-6.642963737E-2,1.119835734E0
3.112388952E0,-9.967499971E-1,-8.689302206E-2,1.112505555E0
3.114742493E0,-9.988879561E-1,-1.073564067E-1,1.105175376E0
3.117096035E0,-1.002400398E0,-1.278197914E-1,1.100288630E0
3.119449577E0,-1.008356094E0,-1.446180940E-1,1.095401883E0
3.121803118E0,-1.014464617E0,-1.579040140E-1,1.092958450E0
3.124156660E0,-1.023016453E0,-1.699682474E-1,1.090362310E0
3.126510202E0,-1.032942772E0,-1.818797737E-1,1.091584086E0
3.128863743E0,-1.042716265E0,-1.892099380E-1,1.091431379E0
3.131217285E0,-1.055238605E0,-1.928750277E-1,1.093721986E0
3.133570827E0,-1.066386580E0,-1.940967143E-1,1.093569279E0
3.135924368E0,-1.082421303E0,-1.928750277E-1,1.093263865E0
3.138277910E0,-1.096165419E0,-1.858502775E-1,1.090667725E0
3.140631452E0,-1.114796281E0,-1.739387512E-1,1.090362310E0
3.142984993E0,-1.130983710E0,-1.583621502E-1,1.087613583E0
3.145338535E0,-1.150836229E0,-1.392731816E-1,1.084712029E0
3.147692077E0,-1.172063231E0,-1.166718230E-1,1.081963181E0
3.150045618E0,-1.195886254E0,-8.796200156E-2,1.079061627E0
3.152399160E0,-1.218334913E0,-5.696150661E-2,1.074938416E0
3.154752702E0,-1.243379593E0,-2.336490713E-2,1.076923728E0
3.157106243E0,-1.268424392E0,1.359135192E-2,1.073869467E0
3.159459785E0,-1.293469071E0,5.543438718E-2,1.070967913E0
3.161813327E0,-1.319888234E0,1.021642014E-1,1.069135427E0
3.164166868E0,-1.343711257E0,1.476723254E-1,1.068677306E0
3.166520410E0,-1.367686987E0,1.991362125E-1,1.069288135E0
3.168873952E0,-1.391510010E0,2.518217862E-1,1.068830013E0
3.171227493E0,-1.409377337E0,3.067980409E-1,1.068371892E0
3.173581035E0,-1.432131410E0,3.643703759E-1,1.068982720E0
3.175934577E0,-1.451067686E0,4.217900336E-1,1.068524599E0
3.178288118E0,-1.467560530E0,4.805840850E-1,1.068066478E0
3.180641660E0,-1.482831717E0,5.392253995E-1,1.065164924E0
3.182995202E0,-1.496881247E0,5.978667736E-1,1.063485026E0
3.185348743E0,-1.507265568E0,6.566607952E-1,1.061805248E0
3.187702285E0,-1.517650008E0,7.165238261E-1,1.061499834E0
3.190055827E0,-1.525438309E0,7.728744745E-1,1.063637733E0
3.192409368E0,-1.534600973E0,8.316685557E-1,1.066997409E0
3.194762962E0,-1.543763757E0,8.915315866E-1,1.072647810E0
3.197116452E0,-1.551857471E0,9.491039515E-1,1.078450799E0
3.199469993E0,-1.559798479E0,1.009119630E0,1.083032131E0
3.201823535E0,-1.570182920E0,1.070357084E0,1.088682532E0
3.204177129E0,-1.580567241E0,1.128998399E0,1.090820551E0
3.206530671E0,-1.590951681E0,1.187792540E0,1.096623540E0
3.208884212E0,-1.600267053E0,1.246586561E0,1.102273822E0
3.211237754E0,-1.609429836E0,1.305380583E0,1.105633497E0
3.213591296E0,-1.619661450E0,1.362800241E0,1.107771516E0
3.215944837E0,-1.628824234E0,1.416860223E0,1.108535051E0
3.218298379E0,-1.640430331E0,1.470767498E0,1.108229637E0
3.220651921E0,-1.649440289E0,1.524674773E0,1.110367656E0
3.223005462E0,-1.658450365E0,1.572626233E0,1.107618809E0
3.225359004E0,-1.666238666E0,1.620577812E0,1.107313395E0
3.227712546E0,-1.676470280E0,1.670819998E0,1.104411840E0
3.230066087E0,-1.681662560E0,1.714037418E0,1.104259133E0
3.232419629E0,-1.685785770E0,1.758323789E0,1.103953719E0
3.234773171E0,-1.686091185E0,1.803831935E0,1.102579355E0
3.237126712E0,-1.685022116E0,1.843384266E0,1.099983215E0
3.239480254E0,-1.682884216E0,1.883089423E0,1.097387075E0
3.241833796E0,-1.674485087E0,1.917907715E0,1.097387075E0
3.244187337E0,-1.664711475E0,1.950282574E0,1.098608851E0
3.246540879E0,-1.655090690E0,1.980366826E0,1.099830508E0
3.248894421E0,-1.639208674E0,2.001899242E0,1.102426648E0
3.251247962E0,-1.621952176E0,2.023584366E0,1.105022669E0
3.253601504E0,-1.603474021E0,2.041756868E0,1.107771516E0
3.255955046E0,-1.580109119E0,2.055042982E0,1.112963676E0
3.258308587E0,-1.555522561E0,2.066038132E0,1.116934180E0
3.260662129E0,-1.529561520E0,2.074589968E0,1.122126460E0
3.263015671E0,-1.501157165E0,2.074589968E0,1.125027895E0
3.265369212E0,-1.471378326E0,2.074742794E0,1.130372882E0
3.267722754E0,-1.445417285E0,2.067718029E0,1.135565042E0
3.270076296E0,-1.419456363E0,2.059471607E0,1.140909910E0
3.272429837E0,-1.394564271E0,2.048781633E0,1.145033240E0
3.274783379E0,-1.372268319E0,2.033357859E0,1.153890491E0
3.277136921E0,-1.355011940E0,2.009534836E0,1.162900448E0
3.279490462E0,-1.340046167E0,1.983268380E0,1.176644564E0
3.281844004E0,-1.331494331E0,1.953489542E0,1.192831993E0
3.284197598E0,-1.324011445E0,1.917602301E0,1.210241079E0
3.286551139E0,-1.319124699E0,1.884158373E0,1.229941010E0
3.288904629E0,-1.313168883E0,1.849645495E0,1.254680276E0
3.291258171E0,-1.304617047E0,1.818645000E0,1.275754452E0
3.293611764E0,-1.295912504E0,1.785201073E0,1.295607090E0
3.295965254E0,-1.289803982E0,1.755422354E0,1.314085126E0
3.298318848E0,-1.277434349E0,1.727934241E0,1.329203606E0
3.300672389E0,-1.265064716E0,1.700446010E0,1.342947721E0
3.303025931E0,-1.250251651E0,1.675401330E0,1.355470061E0
3.305379473E0,-1.234064221E0,1.650356531E0,1.364327312E0
3.307733014E0,-1.214211583E0,1.621799469E0,1.375780702E0
3.310086556E0,-1.194359064E0,1.596754789E0,1.384638071E0
3.312440098E0,-1.170688748E0,1.570488334E0,1.388761282E0
3.314793639E0,-1.147018433E0,1.543000221E0,1.396549582E0
3.317147181E0,-1.122126460E0,1.517955422E0,1.403268814E0
3.319500723E0,-1.092347622E0,1.494132400E0,1.407392025E0
3.321854264E0,-1.064859509E0,1.469087601E0,1.405406833E0
3.324207806E0,-1.038593054E0,1.444042921E0,1.409530044E0
3.326561348E0,-1.010035992E0,1.420219898E0,1.410140872E0
3.328914889E0,-9.863656163E-1,1.396244168E0,1.414264083E0
3.331268431E0,-9.614735842E-1,1.372421026E0,1.418387294E0
3.333621973E0,-9.376505613E-1,1.353332043E0,1.419914484E0
3.335975514E0,-9.103151560E-1,1.339129925E0,1.421594262E0
3.338329056E0,-8.890882134E-1,1.318819284E0,1.423274159E0
3.340682598E0,-8.704573512E-1,1.304464340E0,1.423579574E0
3.343036139E0,-8.480086923E-1,1.290262103E0,1.423884988E0
3.345389681E0,-8.281561732E-1,1.278350592E0,1.422968745E0
3.347743223E0,-8.105943203E-1,1.267508030E0,1.422052383E0
3.350096764E0,-7.931851745E-1,1.258039951E0,1.418692708E0
3.352450306E0,-7.780666947E-1,1.249640822E0,1.414111376E0
3.354803848E0,-7.655443549E-1,1.242463350E0,1.408155680E0
3.357157389E0,-7.554653287E-1,1.234064221E0,1.400978208E0
3.359510931E0,-7.478297353E-1,1.228108406E0,1.395022392E0
3.361864473E0,-7.415685654E-1,1.220778227E0,1.386470556E0
3.364218014E0,-7.375980616E-1,1.212379098E0,1.380514860E0
3.366571556E0,-7.386670709E-1,1.202758312E0,1.374406338E0
3.368925098E0,-7.409577370E-1,1.194359064E0,1.368297815E0
3.371278639E0,-7.434011102E-1,1.188250661E0,1.364632726E0
3.373632181E0,-7.495095730E-1,1.181073189E0,1.360814929E0
3.375985723E0,-7.556180358E-1,1.176186442E0,1.355928183E0
3.378339316E0,-7.617265582E-1,1.173743010E0,1.349667072E0
3.380692858E0,-7.676823139E-1,1.168856263E0,1.343558550E0
3.383046400E0,-7.762341499E-1,1.163969398E0,1.336075664E0
3.385399941E0,-7.847860456E-1,1.160304427E0,1.324927688E0
3.387753431E0,-7.907418013E-1,1.158929944E0,1.316223145E0
3.390107025E0,-8.017370105E-1,1.161220670E0,1.306296825E0
3.392460566E0,-8.115105629E-1,1.161220670E0,1.293927193E0
3.394814108E0,-8.186880350E-1,1.164580345E0,1.280335903E0
3.397167650E0,-8.272398710E-1,1.168092728E0,1.266744494E0
3.399521191E0,-8.331956863E-1,1.171604991E0,1.253153205E0
3.401874733E0,-8.405258060E-1,1.178629756E0,1.238340139E0
3.404228275E0,-8.464815617E-1,1.183363795E0,1.223527074E0
3.406581816E0,-8.499939442E-1,1.191610336E0,1.208714008E0
3.408935358E0,-8.547280431E-1,1.197413325E0,1.192831993E0
3.411288900E0,-8.620582223E-1,1.203369141E0,1.178018928E0
3.413642441E0,-8.692356348E-1,1.209172130E0,1.165496588E0
3.415995983E0,-8.751913905E-1,1.213906169E0,1.150836229E0
3.418349525E0,-8.800781965E-1,1.218640327E0,1.139688253E0
3.420703066E0,-8.848122358E-1,1.224443316E0,1.126096964E0
3.423056608E0,-8.909206986E-1,1.230399132E0,1.114948988E0
3.425410150E0,-8.956547976E-1,1.233911514E0,1.102579355E0
3.427763691E0,-8.980981708E-1,1.239867210E0,1.091584086E0
3.430117233E0,-9.016105533E-1,1.245670319E0,1.077992678E0
3.432470775E0,-9.039012194E-1,1.250404358E0,1.064554095E0
3.434824316E0,-9.037485123E-1,1.255138397E0,1.052184463E0
3.437177858E0,-9.022213817E-1,1.257429123E0,1.038745761E0
3.439531400E0,-8.996253014E-1,1.259719729E0,1.025307178E0
3.441884941E0,-8.956547976E-1,1.260788798E0,1.011868477E0
3.444238483E0,-8.929060102E-1,1.256054640E0,9.985825419E-1
3.446592025E0,-8.877137899E-1,1.248724461E0,9.875873327E-1
3.448945566E0,-8.825215697E-1,1.239103675E0,9.743013978E-1
3.451299108E0,-8.747332692E-1,1.227039456E0,9.620844126E-1
3.453652650E0,-8.657232523E-1,1.212531805E0,9.513946176E-1
3.456006191E0,-8.554915786E-1,1.196955204E0,9.393303990E-1
3.458359733E0,-8.428165317E-1,1.182600260E0,9.284878373E-1
3.460713275E0,-8.327375054E-1,1.164580345E0,9.200887084E-1
3.463066816E0,-8.199097514E-1,1.141826272E0,9.093988538E-1
3.465420358E0,-8.035695553E-1,1.118919492E0,9.011524320E-1
3.467773952E0,-7.882983685E-1,1.093874693E0,8.941276670E-1
3.470127441E0,-7.707365155E-1,1.066233873E0,8.895463347E-1
3.472480983E0,-7.493568659E-1,1.039967418E0,8.814526200E-1
3.474834525E0,-7.316423059E-1,1.013548255E0,8.756495714E-1
3.477188118E0,-7.114843726E-1,9.836167693E-1,8.675557971E-1
3.479541660E0,-6.913263798E-1,9.584193230E-1,8.605310917E-1
3.481895202E0,-6.699467301E-1,9.321529269E-1,8.536590338E-1
3.484248743E0,-6.510104537E-1,9.057337642E-1,8.454126120E-1
3.486602285E0,-6.320741773E-1,8.805363178E-1,8.371661901E-1
3.488955827E0,-6.119162440E-1,8.565605879E-1,8.290724158E-1
3.491309368E0,-5.929799676E-1,8.327375054E-1,8.220477104E-1
3.493662910E0,-5.741963983E-1,8.134958148E-1,8.113578558E-1
3.496016452E0,-5.589252710E-1,7.954758406E-1,8.018897176E-1
3.498369993E0,-5.438067913E-1,7.763868570E-1,7.934905887E-1
3.500723535E0,-5.274665952E-1,7.583668828E-1,7.852441669E-1
3.503077077E0,-5.147915483E-1,7.440119386E-1,7.769976854E-1
3.505430618E0,-5.033381581E-1,7.282826304E-1,7.685985565E-1
3.507784160E0,-4.906630516E-1,7.151494026E-1,7.601994276E-1
3.510137702E0,-4.805840850E-1,7.007945180E-1,7.543963790E-1
3.512491243E0,-4.679090083E-1,6.899519563E-1,7.447755337E-1
3.514844785E0,-4.566083252E-1,6.778877378E-1,7.363763452E-1
3.517198327E0,-4.489727318E-1,6.682668924E-1,7.279772162E-1
3.519551868E0,-4.401154518E-1,6.575770974E-1,7.207997441E-1
3.521905410E0,-4.324798584E-1,6.514685750E-1,7.124006152E-1
3.524258952E0,-4.260659516E-1,6.430694461E-1,7.050704360E-1
3.526612493E0,-4.208737612E-1,6.406260729E-1,6.966713071E-1
3.528966035E0,-4.158342779E-1,6.346703172E-1,6.893411279E-1
3.531319577E0,-4.144598544E-1,6.310052276E-1,6.846070886E-1
3.533673118E0,-4.118637741E-1,6.285618544E-1,6.760551929E-1
3.536026660E0,-4.117110670E-1,6.261184216E-1,6.675033569E-1
3.538380202E0,-4.101839364E-1,6.259657145E-1,6.565080881E-1
3.540733743E0,-4.075878263E-1,6.296308041E-1,6.455128193E-1
3.543087285E0,-4.098785222E-1,6.331431866E-1,6.343649030E-1
3.545440827E0,-4.085040987E-1,6.377245188E-1,6.209262609E-1
3.547794368E0,-4.121691883E-1,6.449019909E-1,6.109999418E-1
3.550147910E0,-4.156815708E-1,6.520794630E-1,5.975613594E-1
3.552501452E0,-4.155288339E-1,6.615476012E-1,5.839699507E-1
3.554854993E0,-4.204156399E-1,6.697940230E-1,5.740436912E-1
3.557208535E0,-4.253024161E-1,6.829272509E-1,5.641174316E-1
3.559562077E0,-4.253024161E-1,6.985038519E-1,5.555655956E-1
3.561915618E0,-4.289674759E-1,7.127060294E-1,5.456393361E-1
3.564269160E0,-4.324798584E-1,7.282826304E-1,5.320479870E-1
3.566622702E0,-4.361449480E-1,7.449282408E-1,5.233433843E-1
3.568976296E0,-4.385883212E-1,7.605048418E-1,5.109737515E-1
3.571329837E0,-4.396573007E-1,7.734853625E-1,4.950917065E-1
3.573683379E0,-4.395045936E-1,7.878402472E-1,4.790569544E-1
3.576036921E0,-4.443913698E-1,8.032641411E-1,4.642439187E-1
3.578390462E0,-4.466820657E-1,8.163973689E-1,4.494308829E-1
3.580744004E0,-4.501944184E-1,8.293778896E-1,4.309527278E-1
3.583097546E0,-4.561502039E-1,8.412894011E-1,4.136963189E-1
3.585451087E0,-4.610369802E-1,8.544226289E-1,3.964398801E-1
3.587804629E0,-4.657710493E-1,8.674030900E-1,3.804051280E-1
3.590158171E0,-4.767662883E-1,8.793146014E-1,3.631486893E-1
3.592511712E0,-4.827220440E-1,8.898517489E-1,3.445178568E-1
3.594865254E0,-4.888305068E-1,9.029849768E-1,3.309265077E-1
3.597218796E0,-4.960079789E-1,9.159654379E-1,3.136700690E-1
3.599572337E0,-5.045598149E-1,9.290986657E-1,2.951919436E-1
3.601925879E0,-5.105155706E-1,9.445225596E-1,2.777827978E-1
3.604279421E0,-5.178457499E-1,9.575030804E-1,2.605263591E-1
3.606632962E0,-5.274665952E-1,9.669712186E-1,2.432699203E-1
3.608986504E0,-5.335750580E-1,9.801044464E-1,2.272351831E-1
3.611340046E0,-5.395308137E-1,9.859074950E-1,2.124221325E-1
3.613693587E0,-5.480827093E-1,9.965972900E-1,1.974563748E-1
3.616047129E0,-5.552601814E-1,1.003622055E0,1.814216375E-1
3.618400671E0,-5.650337338E-1,1.009425044E0,1.678302884E-1
3.620754212E0,-5.734328628E-1,1.015380859E0,1.530172378E-1
3.623107754E0,-5.832064152E-1,1.017671585E0,1.382041872E-1
3.625461296E0,-5.916055441E-1,1.017518878E0,1.221694499E-1
3.627814837E0,-6.013791561E-1,1.019809484E0,1.097997949E-1
3.630168379E0,-6.109999418E-1,1.022100210E0,9.849911928E-2
3.632521921E0,-6.171084642E-1,1.020725727E0,8.506047726E-2
3.634875462E0,-6.267293096E-1,1.023016453E0,7.009471953E-2
3.637229004E0,-6.326850653E-1,1.021642089E0,5.665608495E-2
3.639582546E0,-6.386408210E-1,1.016755223E0,4.184303805E-2
3.641936087E0,-6.445965767E-1,1.008203387E0,3.084778599E-2
3.644289629E0,-6.467345357E-1,9.985825419E-1,1.603474095E-2
3.646643171E0,-6.502469182E-1,9.852966070E-1,5.039489828E-3
3.648996712E0,-6.523848772E-1,9.720106721E-1,-5.955760833E-3
3.651350254E0,-6.519267559E-1,9.515473247E-1,-2.168507688E-2
3.653703796E0,-6.503996253E-1,9.310839176E-1,-3.512371704E-2
3.656057337E0,-6.488724947E-1,9.106205702E-1,-4.718795046E-2
3.658410879E0,-6.435275674E-1,8.864920735E-1,-5.680879578E-2
3.660764421E0,-6.381826997E-1,8.577822447E-1,-6.642963737E-2
3.663117962E0,-6.316160560E-1,8.312104344E-1,-7.849387079E-2
3.665471556E0,-6.238277555E-1,8.035695553E-1,-9.055810422E-2
3.667825046E0,-6.158867478E-1,7.736380696E-1,-1.026223376E-1
3.670178639E0,-6.004628539E-1,7.363763452E-1,-1.169772521E-1
3.672532181E0,-5.876350403E-1,7.003363967E-1,-1.301104724E-1
3.674885671E0,-5.760289431E-1,6.642963886E-1,-1.432436854E-1
3.677239264E0,-5.618267655E-1,6.235223413E-1,-1.575985998E-1
3.679592806E0,-5.489989519E-1,5.803049207E-1,-1.693574041E-1
3.681946348E0,-5.346440673E-1,5.335750580E-1,-1.849340051E-1
3.684299889E0,-5.218162537E-1,4.866925478E-1,-1.980672181E-1
3.686653431E0,-5.088357925E-1,4.362976551E-1,-2.099787444E-1
3.689006973E0,-4.908157587E-1,3.883461356E-1,-2.217375487E-1
3.691360514E0,-4.753918648E-1,3.416163325E-1,-2.348707765E-1
3.693714056E0,-4.575245976E-1,2.935121059E-1,-2.466295809E-1
3.696067598E0,-4.396573007E-1,2.443388999E-1,-2.583884001E-1
3.698421139E0,-4.205683470E-1,1.976090819E-1,-2.689255178E-1
3.700774681E0,-4.001049399E-1,1.521009654E-1,-2.794626355E-1
3.703128223E0,-3.761292100E-1,1.065928489E-1,-2.875563502E-1
3.705481764E0,-3.533751369E-1,6.215370819E-2,-2.968717813E-1
3.707835306E0,-3.306210935E-1,1.908897609E-2,-3.061871827E-1
3.710188848E0,-3.064926267E-1,-2.412846684E-2,-3.142809272E-1
3.712542389E0,-2.825168669E-1,-6.597150117E-2,-3.246653080E-1
3.714895931E0,-2.622061968E-1,-1.007898003E-1,-3.377985358E-1
3.717249473E0,-2.382304370E-1,-1.356080920E-1,-3.483356535E-1
3.719603014E0,-2.154763639E-1,-1.630962193E-1,-3.625378609E-1
3.721956556E0,-1.915006191E-1,-1.870719790E-1,-3.756710589E-1
3.724310098E0,-1.664558798E-1,-2.063136548E-1,-3.862081766E-1
3.726663639E0,-1.424801201E-1,-2.206685692E-1,-4.005630910E-1
3.729017181E0,-1.198787764E-1,-2.290677279E-1,-4.172086716E-1
3.731370723E0,-9.483403713E-2,-2.315111160E-1,-4.315635860E-1
3.733724264E0,-7.101099193E-2,-2.290677279E-1,-4.471401870E-1
3.736077806E0,-4.963133857E-2,-2.231119573E-1,-4.653128982E-1
3.738431348E0,-2.702999115E-2,-2.171562016E-1,-4.845545888E-1
3.740784889E0,-5.803049076E-3,-2.052446753E-1,-5.051707029E-1
3.743138431E0,1.679829881E-2,-1.908897758E-1,-5.256340504E-1
3.745491973E0,3.573456407E-2,-1.777565479E-1,-5.462501645E-1
3.747832441E0,5.314370990E-2,-1.609582454E-1,-5.644228458E-1
3.750199056E0,6.459710002E-2,-1.467560530E-1,-5.827482939E-1
3.752552598E0,7.589777559E-2,-1.299577504E-1,-6.033644080E-1
3.754893066E0,8.231166750E-2,-1.133121699E-1,-6.193991303E-1
3.757259681E0,8.872556686E-2,-9.773556143E-2,-6.365028620E-1
3.759613223E0,9.132166207E-2,-8.460234851E-2,-6.499415040E-1
3.761966764E0,8.887827396E-2,-7.162184268E-2,-6.635328531E-1
3.764320306E0,8.399149776E-2,-5.971032009E-2,-6.734591126E-1
3.766673848E0,7.788302749E-2,-5.131116882E-2,-6.795675755E-1
3.769027441E0,6.810946763E-2,-4.779879749E-2,-6.884248853E-1
3.771380931E0,5.940489471E-2,-4.795150831E-2,-6.908682585E-1
3.773734525E0,4.963133857E-2,-5.390727147E-2,-6.922426820E-1
3.776088066E0,3.848337755E-2,-6.123743951E-2,-6.899519563E-1
3.778441608E0,3.115320951E-2,-7.314895838E-2,-6.911736727E-1
3.780795150E0,2.244863659E-2,-8.643488586E-2,-6.852179170E-1
3.783148691E0,1.374406368E-2,-1.044548824E-1,-6.827745438E-1
3.785502233E0,8.857285604E-3,-1.235438585E-1,-6.754443645E-1
3.787855775E0,3.970507067E-3,-1.475196183E-1,-6.717792749E-1
3.790209316E0,2.748812549E-3,-1.678302884E-1,-6.642963886E-1
3.792562858E0,2.901524538E-3,-1.918060333E-1,-6.581879258E-1
3.794916400E0,7.941014133E-3,-2.121167034E-1,-6.542174220E-1
3.797269941E0,1.191152167E-2,-2.373141646E-1,-6.552863717E-1
3.799623483E0,1.817270555E-2,-2.576248348E-1,-6.526902914E-1
3.801977025E0,2.947338112E-2,-2.756448388E-1,-6.549809575E-1
3.804330566E0,4.077405483E-2,-2.947337925E-1,-6.583406329E-1
3.806684108E0,5.222744122E-2,-3.115321100E-1,-6.642963886E-1
3.809037650E0,6.612421572E-2,-3.295520842E-1,-6.749862432E-1
3.811391191E0,7.879929990E-2,-3.452814221E-1,-6.858287454E-1
3.813744733E0,9.407047927E-2,-3.596363366E-1,-6.965186000E-1
3.816098275E0,1.091889441E-1,-3.776563108E-1,-7.085828185E-1
3.818451816E0,1.255291104E-1,-3.883461356E-1,-7.180509567E-1
3.820805358E0,1.394258887E-1,-3.979669809E-1,-7.301151752E-1
3.823158900E0,1.571404636E-1,-4.016320705E-1,-7.444701195E-1
3.825512441E0,1.734806150E-1,-4.052971601E-1,-7.565343380E-1
3.827865983E0,1.885990947E-1,-4.065188468E-1,-7.708892226E-1
3.830219525E0,2.075353563E-1,-4.030064642E-1,-7.902836204E-1
3.832573066E0,2.250972092E-1,-3.993414044E-1,-8.096780181E-1
3.834926608E0,2.452551723E-1,-3.898732662E-1,-8.276980519E-1
3.837280150E0,2.652604282E-1,-3.778090179E-1,-8.446490765E-1
3.839633691E0,2.828222811E-1,-3.658975065E-1,-8.652651310E-1
3.841987233E0,3.016058207E-1,-3.492519259E-1,-8.846595287E-1
3.844340775E0,3.191677034E-1,-3.312319219E-1,-9.028322697E-1
3.846694316E0,3.367295563E-1,-3.084778786E-1,-9.222266674E-1
3.849047858E0,3.530697227E-1,-2.881672084E-1,-9.417737722E-1
3.851401400E0,3.680354655E-1,-2.643441558E-1,-9.611681700E-1
3.853754941E0,3.843756318E-1,-2.391466945E-1,-9.831586480E-1
3.856108483E0,3.956763148E-1,-2.128802687E-1,-1.003774762E0
3.858462025E0,4.081986845E-1,-1.890572309E-1,-1.022100210E0
3.860815566E0,4.170559645E-1,-1.615691036E-1,-1.042868972E0
3.863169108E0,4.233171642E-1,-1.340809762E-1,-1.061347127E0
3.865522650E0,4.283566475E-1,-1.101052165E-1,-1.080894232E0
3.867876191E0,4.347705245E-1,-8.506047726E-2,-1.100594044E0
3.870229733E0,4.349232614E-1,-6.123743951E-2,-1.120141149E0
3.872583327E0,4.324798584E-1,-3.848337755E-2,-1.138772011E0
3.874936816E0,4.301891923E-1,-1.710372418E-2,-1.156028390E0
3.877290358E0,4.228590131E-1,-1.679830020E-3,-1.173284888E0
3.879643900E0,4.118637741E-1,1.145338640E-2,-1.188097954E0
3.881997493E0,3.996468186E-1,2.076880634E-2,-1.203063726E0
3.884351035E0,3.825430870E-1,2.794626169E-2,-1.214364409E0
3.886704577E0,3.628432751E-1,3.130592033E-2,-1.225664973E0
3.889058066E0,3.407000601E-1,3.115320951E-2,-1.235743999E0
3.891411660E0,3.222219348E-1,3.100049868E-2,-1.244601250E0
3.893765202E0,3.037438095E-1,2.962609194E-2,-1.257123709E0
3.896118743E0,2.866400778E-1,2.840439789E-2,-1.267202616E0
3.898472285E0,2.718270421E-1,2.825168520E-2,-1.275907159E0
3.900825827E0,2.571666837E-1,2.687728032E-2,-1.285986185E0
3.903179368E0,2.461714447E-1,2.672456764E-2,-1.298355818E0
3.905532910E0,2.400629669E-1,2.794626169E-2,-1.307060480E0
3.907886452E0,2.328855246E-1,2.657185495E-2,-1.318208337E0
3.910239993E0,2.293731421E-1,2.641914412E-2,-1.332868695E0
3.912593535E0,2.272351831E-1,2.626643144E-2,-1.350125194E0
3.914947077E0,2.273878902E-1,2.855710872E-2,-1.366007209E0
3.917300618E0,2.302894145E-1,2.855710872E-2,-1.384485364E0
3.919654160E0,2.342599183E-1,2.473931387E-2,-1.404032469E0
3.922007702E0,2.396048307E-1,2.596100792E-2,-1.423426867E0
3.924361243E0,2.447970361E-1,2.702999115E-2,-1.442973971E0
3.926714785E0,2.538070381E-1,2.809897438E-2,-1.461299300E0
3.929068327E0,2.628170252E-1,3.038965166E-2,-1.481915474E0
3.931421868E0,2.730487287E-1,3.390202299E-2,-1.503905892E0
3.933775410E0,2.845021188E-1,3.741439432E-2,-1.524522066E0
3.936128952E0,2.922904193E-1,3.970507160E-2,-1.547734261E0
3.938482493E0,3.026748300E-1,4.428642616E-2,-1.570793748E0
3.940836035E0,3.104631305E-1,5.024218559E-2,-1.595227599E0
3.943189577E0,3.182514310E-1,5.131116882E-2,-1.615996480E0
3.945543118E0,3.246653080E-1,5.833591148E-2,-1.636765242E0
3.947896660E0,3.324536085E-1,5.833591148E-2,-1.656159639E0
3.950250202E0,3.400892019E-1,6.306997687E-2,-1.673263311E0
3.952603743E0,3.465031087E-1,6.536065787E-2,-1.686549306E0
3.954957285E0,3.553603888E-1,6.658235192E-2,-1.697544575E0
3.957310827E0,3.654393852E-1,6.887302548E-2,-1.708387017E0
3.959664368E0,3.767400384E-1,7.009471953E-2,-1.718007922E0
3.962017910E0,3.868190348E-1,7.116370648E-2,-1.727628708E0
3.964371452E0,4.005630910E-1,7.360709459E-2,-1.734806180E0
3.966724993E0,4.118637741E-1,7.727217674E-2,-1.740761995E0
3.969078535E0,4.256078303E-1,7.849387079E-2,-1.745496035E0
3.971432077E0,4.404208660E-1,8.215895295E-2,-1.750230074E0
3.973785618E0,4.529432356E-1,8.689302206E-2,-1.756185889E0
3.976139160E0,4.616478086E-1,9.055810422E-2,-1.759698272E0
3.978492702E0,4.653128982E-1,9.300149232E-2,-1.758476496E0
3.980846243E0,4.665345848E-1,9.177979827E-2,-1.757254839E0
3.983199785E0,4.639385045E-1,8.826743066E-2,-1.749924660E0
3.985553327E0,4.601207078E-1,8.108997345E-2,-1.740151167E0
3.987906868E0,4.549284875E-1,7.757759839E-2,-1.726712465E0
3.990260410E0,4.462239146E-1,6.917845458E-2,-1.715869904E0
3.992614004E0,4.422534108E-1,6.444438547E-2,-1.697544575E0
3.994967546E0,4.381301999E-1,6.215370819E-2,-1.677997470E0
3.997321087E0,4.355340898E-1,5.741964281E-2,-1.660893679E0
3.999674629E0,4.350759685E-1,5.757235363E-2,-1.641193867E0
4.002028171E0,4.359922409E-1,5.772506446E-2,-1.620425105E0
4.004381712E0,4.417952895E-1,6.032116711E-2,-1.598281860E0
4.006735254E0,4.463766217E-1,6.536065787E-2,-1.574916959E0
4.009088796E0,4.570664763E-1,7.040014863E-2,-1.549108624E0
4.011442337E0,4.665345848E-1,7.421794534E-2,-1.519635320E0
4.013795879E0,4.796678126E-1,7.803573459E-2,-1.491230845E0
4.016149421E0,4.964661002E-1,8.307522535E-2,-1.462979198E0
4.018502962E0,5.121954083E-1,8.689302206E-2,-1.434574842E0
4.020856504E0,5.289937258E-1,9.315420687E-2,-1.404948711E0
4.023210046E0,5.409052372E-1,9.941539168E-2,-1.380362034E0
4.025563587E0,5.529694557E-1,1.044548824E-1,-1.355470061E0
4.027917129E0,5.661026835E-1,1.130067408E-1,-1.330883503E0
4.030270671E0,5.767925382E-1,1.192679256E-1,-1.305075169E0
4.032624212E0,5.887040496E-1,1.278197914E-1,-1.281557560E0
4.034977754E0,5.993938446E-1,1.340809762E-1,-1.254527569E0
4.037331296E0,6.088619828E-1,1.391204596E-1,-1.226275921E0
4.039684837E0,6.206207871E-1,1.429382563E-1,-1.195428133E0
4.042038379E0,6.276455522E-1,1.455343664E-1,-1.164733052E0
4.044391921E0,6.369609833E-1,1.470614821E-1,-1.134037971E0
4.046745462E0,6.452074051E-1,1.459924877E-1,-1.103342891E0
4.049099004E0,6.546755433E-1,1.475196183E-1,-1.075091124E0
4.051452546E0,6.627692580E-1,1.464506239E-1,-1.044243336E0
4.053806087E0,6.697940230E-1,1.455343664E-1,-1.017213345E0
4.056159629E0,6.731536984E-1,1.421747059E-1,-9.901834130E-1
4.058513171E0,6.763606071E-1,1.388150454E-1,-9.596410394E-1
4.060866712E0,6.772769094E-1,1.330119967E-1,-9.326110482E-1
4.063220254E0,6.804838181E-1,1.284306347E-1,-9.006943107E-1
4.065573796E0,6.836907864E-1,1.178935245E-1,-8.663341403E-1
4.067927337E0,6.856760383E-1,1.072036922E-1,-8.331956863E-1
4.070280879E0,6.865923405E-1,9.422318637E-2,-8.037222624E-1
4.072634421E0,6.873558760E-1,8.368607610E-2,-7.730271816E-1
4.074987962E0,6.881194115E-1,7.314895838E-2,-7.412631512E-1
4.077341504E0,6.902574301E-1,6.016845629E-2,-7.130114436E-1
4.079695046E0,6.923953891E-1,4.947862774E-2,-6.847597957E-1
4.082048587E0,6.957550049E-1,4.245388508E-2,-6.589514613E-1
4.084402129E0,6.991146803E-1,3.665083647E-2,-6.343649030E-1
4.086755671E0,7.024743557E-1,3.329117596E-2,-6.146650314E-1
4.089109212E0,7.082774043E-1,3.222219273E-2,-5.925218463E-1
4.091462754E0,7.117897868E-1,2.993151546E-2,-5.766398311E-1
4.093816296E0,7.201889157E-1,3.130592033E-2,-5.606050491E-1
4.096169837E0,7.261446714E-1,2.901524492E-2,-5.470137000E-1
4.098523379E0,7.334748507E-1,3.023693897E-2,-5.370874405E-1
4.100876921E0,7.382088900E-1,3.405473381E-2,-5.236487985E-1
4.103230462E0,7.466080785E-1,3.527642787E-2,-5.125008225E-1
4.105584004E0,7.527165413E-1,4.138490185E-2,-5.025745630E-1
4.107937546E0,7.586722970E-1,4.382828996E-2,-4.914266169E-1
4.110291087E0,7.646280527E-1,4.886778072E-2,-4.792096615E-1
4.112644629E0,7.693621516E-1,5.360184610E-2,-4.705050886E-1
4.114998171E0,7.728744745E-1,5.971032009E-2,-4.607315361E-1
4.117351764E0,7.763868570E-1,6.581879407E-2,-4.509579837E-1
4.119705254E0,7.811209559E-1,7.314895838E-2,-4.398100376E-1
4.122058848E0,7.858549953E-1,7.803573459E-2,-4.288147688E-1
4.124412389E0,7.881456614E-1,8.414421231E-2,-4.178195298E-1
4.126765931E0,7.916580439E-1,9.254335612E-2,-4.017847776E-1
4.129119473E0,7.937960029E-1,9.987352788E-2,-3.883461356E-1
4.131473014E0,7.959339619E-1,1.084253863E-1,-3.736858070E-1
4.133826556E0,7.992936373E-1,1.180462316E-1,-3.578037918E-1
4.136180098E0,8.015843034E-1,1.302631795E-1,-3.455868363E-1
4.138533639E0,8.012788892E-1,1.446180940E-1,-3.333698809E-1
4.140887181E0,8.021951914E-1,1.579040140E-1,-3.223746419E-1
4.143240723E0,7.970029712E-1,1.699682474E-1,-3.150444627E-1
4.145594264E0,7.956285477E-1,1.843231618E-1,-3.078670204E-1
4.147947806E0,7.916580439E-1,1.988307834E-1,-3.019112647E-1
4.150301348E0,7.852441669E-1,2.131856978E-1,-2.945810854E-1
4.152654889E0,7.788302302E-1,2.276933193E-1,-2.886253297E-1
4.155008431E0,7.711946368E-1,2.432699203E-1,-2.838912606E-1
4.157361973E0,7.635591030E-1,2.564031482E-1,-2.767138183E-1
4.159715514E0,7.559235096E-1,2.672456801E-1,-2.707580328E-1
4.162069056E0,7.482879162E-1,2.803788781E-1,-2.635805905E-1
4.164422598E0,7.406523228E-1,2.924431264E-1,-2.564031482E-1
4.166776139E0,7.354601026E-1,3.057290614E-1,-2.480039895E-1
4.169129681E0,7.278245091E-1,3.188622594E-1,-2.408265322E-1
4.171483223E0,7.226322889E-1,3.344388604E-1,-2.322746664E-1
4.173836764E0,7.185090780E-1,3.536805511E-1,-2.238755226E-1
4.176190306E0,7.133168578E-1,3.729222417E-1,-2.154763639E-1
4.178543848E0,7.081246972E-1,3.933856487E-1,-2.058555335E-1
4.180897389E0,7.027797699E-1,4.126273096E-1,-1.974563748E-1
4.183250931E0,6.988092661E-1,4.294256270E-1,-1.876828223E-1
4.185604473E0,6.923953891E-1,4.462239146E-1,-1.792836636E-1
4.187958014E0,6.872031689E-1,4.630222321E-1,-1.733279079E-1
4.190311556E0,6.795675755E-1,4.763081372E-1,-1.673721522E-1
4.192665098E0,6.707102656E-1,4.847072959E-1,-1.577513069E-1
4.195018639E0,6.630746722E-1,4.918847680E-1,-1.505738497E-1
4.197372181E0,6.554391384E-1,4.955498278E-1,-1.420219839E-1
4.199725723E0,6.478035450E-1,4.955498278E-1,-1.311794519E-1
4.202079264E0,6.415423155E-1,4.955498278E-1,-1.226275861E-1
4.204432806E0,6.351284385E-1,4.944808483E-1,-1.117850468E-1
4.206786348E0,6.313106418E-1,4.920374751E-1,-1.044548824E-1
4.209139889E0,6.274928451E-1,4.873034060E-1,-9.956810623E-2
4.211493431E0,6.224533319E-1,4.813476503E-1,-9.345962852E-2
4.213846973E0,6.175665855E-1,4.729484916E-1,-9.116895497E-2
4.216200514E0,6.113054156E-1,4.598152637E-1,-8.506047726E-2
4.218554056E0,6.076403260E-1,4.466820657E-1,-7.773031294E-2
4.220907598E0,6.026008129E-1,4.298837483E-1,-7.162184268E-2
4.223261139E0,5.989357233E-1,4.106420577E-1,-6.169557199E-2
4.225614681E0,5.940489769E-1,3.878880143E-1,-5.314370990E-2
4.227968223E0,5.903838873E-1,3.651339412E-1,-4.581354558E-2
4.230321764E0,5.867187977E-1,3.388675153E-1,-3.710897267E-2
4.232675306E0,5.830537081E-1,3.113794029E-1,-3.100049868E-2
4.235028848E0,5.818319917E-1,2.837385535E-1,-2.596100792E-2
4.237382389E0,5.795413256E-1,2.574721277E-1,-1.863084175E-2
4.239735983E0,5.784723759E-1,2.261662036E-1,-1.481304597E-2
4.242089525E0,5.774033666E-1,1.974563748E-1,-1.343864016E-2
4.244443066E0,5.763344169E-1,1.687465608E-1,-1.099525020E-2
4.246796608E0,5.752654076E-1,1.386623234E-1,-9.620844387E-3
4.249150150E0,5.716003180E-1,1.075091213E-1,-5.803049076E-3
4.251503691E0,5.656445622E-1,7.635590434E-2,-2.137965523E-3
4.253857233E0,5.609105229E-1,4.520269856E-2,-9.162708884E-4
4.256210775E0,5.548020005E-1,1.878355257E-2,3.054236295E-4
4.258564316E0,5.425850749E-1,-1.007897966E-2,1.527118147E-3
4.260917858E0,5.317425132E-1,-3.649812192E-2,3.054236295E-4
4.263271400E0,5.169295073E-1,-6.047387794E-2,1.527118147E-4
4.265624941E0,5.022691488E-1,-8.215895295E-2,-1.221694518E-3
4.267978483E0,4.850127101E-1,-1.026223376E-1,2.290677279E-3
4.270332025E0,4.663818777E-1,-1.171299592E-1,7.024743594E-3
4.272685566E0,4.440859556E-1,-1.291942000E-1,1.038440317E-2
4.275039108E0,4.230117202E-1,-1.388150454E-1,1.496575773E-2
4.277392650E0,3.994941115E-1,-1.424801201E-1,1.954711229E-2
4.279746191E0,3.744493723E-1,-1.437018216E-1,2.779355086E-2
4.282099733E0,3.471139669E-1,-1.389677525E-1,3.481829539E-2
4.284453275E0,3.196258247E-1,-1.294996142E-1,4.169032723E-2
4.286806816E0,2.945810854E-1,-1.163664013E-1,4.856235534E-2
4.289160358E0,2.670929730E-1,-9.834641218E-2,5.665608495E-2
4.291513900E0,2.394521236E-1,-7.681404054E-2,6.474980712E-2
4.293867441E0,2.093679011E-1,-5.528167635E-2,7.284353673E-2
4.296220983E0,1.806580722E-1,-3.145863488E-2,8.093725890E-2
4.298574525E0,1.517955512E-1,-5.039489828E-3,8.903098851E-2
4.300928066E0,1.241547018E-1,2.367033064E-2,9.956810623E-2
4.303281608E0,9.391776472E-2,5.238015205E-2,1.087308154E-1
4.305635150E0,6.627693027E-2,8.231166750E-2,1.180462316E-1
4.307988691E0,3.985778242E-2,1.159082651E-1,1.285833418E-1
4.310342233E0,1.343864016E-2,1.505738497E-1,1.391204596E-1
4.312695775E0,-1.298050396E-2,1.817270666E-1,1.496575773E-1
4.315049316E0,-3.695625812E-2,2.141019702E-1,1.589729935E-1
4.317402858E0,-6.093201414E-2,2.464768738E-1,1.682884246E-1
4.319756400E0,-8.246438205E-2,2.786990702E-1,1.776038408E-1
4.322109941E0,-1.014006436E-1,3.100049794E-1,1.895153672E-1
4.324463483E0,-1.204896197E-1,3.399364948E-1,2.000524700E-1
4.326817025E0,-1.394258887E-1,3.686463237E-1,2.082989216E-1
4.329170566E0,-1.534753740E-1,3.950654566E-1,2.214321345E-1
4.331524108E0,-1.673721522E-1,4.214846194E-1,2.321219593E-1
4.333877650E0,-1.801999360E-1,4.419479966E-1,2.454078794E-1
4.336231191E0,-1.942494214E-1,4.624113739E-1,2.585411072E-1
4.338584733E0,-2.095206082E-1,4.779879749E-1,2.765611112E-1
4.340938275E0,-2.223484069E-1,4.937172830E-1,2.947337925E-1
4.343291816E0,-2.363978922E-1,5.057815313E-1,3.165715933E-1
4.345645358E0,-2.504473627E-1,5.129590034E-1,3.396310806E-1
4.347998900E0,-2.632751763E-1,5.179984570E-1,3.651339412E-1
4.350352441E0,-2.761029601E-1,5.169295073E-1,3.894151151E-1
4.352705983E0,-2.877090573E-1,5.134171247E-1,4.173613787E-1
4.355059525E0,-2.980934680E-1,5.086830258E-1,4.454603493E-1
4.357413066E0,-3.071034551E-1,5.005893111E-1,4.747810364E-1
4.359766608E0,-3.150444627E-1,4.886777997E-1,5.065450668E-1
4.362120150E0,-3.191677034E-1,4.732539058E-1,5.395308137E-1
4.364473691E0,-3.196258247E-1,4.543176591E-1,5.714476109E-1
4.366827233E0,-3.187095523E-1,4.353813827E-1,6.058077812E-1
4.369180775E0,-3.216110766E-1,4.152234197E-1,6.413896084E-1
4.371534316E0,-3.208475113E-1,3.938437700E-1,6.757497787E-1
4.373887858E0,-3.188622594E-1,3.736858070E-1,7.125533223E-1
4.376241452E0,-3.142809272E-1,3.524588645E-1,7.470661998E-1
4.378594941E0,-3.084778786E-1,3.239017725E-1,7.803573608E-1
4.380948535E0,-3.025220931E-1,2.941229641E-1,8.148702383E-1
4.383302025E0,-2.942756712E-1,2.632751763E-1,8.493831158E-1
4.385655618E0,-2.846548259E-1,2.310529798E-1,8.814526200E-1
4.388009160E0,-2.724378705E-1,1.977618039E-1,9.110786915E-1
4.390362702E0,-2.603736520E-1,1.644706279E-1,9.420791864E-1
4.392716243E0,-2.443388999E-1,1.238492802E-1,9.669712186E-1
4.395069785E0,-2.307475507E-1,8.338065445E-2,9.929322004E-1
4.397423327E0,-2.147128135E-1,4.046862945E-2,1.017824292E0
4.399776868E0,-1.924168915E-1,-3.665083554E-3,1.039203882E0
4.402130410E0,-1.725643575E-1,-5.146388337E-2,1.059209108E0
4.404483952E0,-1.490467340E-1,-1.017060652E-1,1.078145385E0
4.406837493E0,-1.253764033E-1,-1.542389393E-1,1.099525094E0
4.409191035E0,-1.004843712E-1,-2.078407854E-1,1.117239594E0
4.411544577E0,-7.437065244E-2,-2.664821148E-1,1.136175871E0
4.413898118E0,-4.810422286E-2,-3.237490356E-1,1.151447058E0
4.416251660E0,-2.076880634E-2,-3.787252903E-1,1.169161677E0
4.418605202E0,1.679830020E-3,-4.349232614E-1,1.183211088E0
4.420958743E0,1.924168877E-2,-4.911212027E-1,1.194664478E0
4.423312285E0,3.939964995E-2,-5.425850749E-1,1.205048919E0
4.425665827E0,5.329642445E-2,-5.928272605E-1,1.211462855E0
4.428019368E0,6.719319522E-2,-6.383354068E-1,1.214364409E0
4.430372910E0,7.727217674E-2,-6.838434935E-1,1.219556570E0
4.432726452E0,8.506047726E-2,-7.246175408E-1,1.218640327E0
4.435079993E0,9.284878522E-2,-7.617265582E-1,1.216502309E0
4.437433535E0,9.681928903E-2,-7.941014171E-1,1.214211583E0
4.439787077E0,1.007898003E-1,-8.264763355E-1,1.211920977E0
4.442140618E0,1.010952219E-1,-8.588512540E-1,1.204743505E0
4.444494160E0,1.001789495E-1,-8.864920735E-1,1.201078415E0
4.446847702E0,9.926267713E-2,-9.106205702E-1,1.193900943E0
4.449201243E0,9.697200358E-2,-9.333745837E-1,1.187792540E0
4.451554785E0,9.727742523E-2,-9.526162744E-1,1.180462360E0
4.453908327E0,9.513945878E-2,-9.695672989E-1,1.170688748E0
4.456261868E0,9.284878522E-2,-9.828532338E-1,1.160915256E0
4.458615410E0,9.300149232E-2,-9.912523627E-1,1.154806733E0
4.460968952E0,9.452861547E-2,-9.984298348E-1,1.142742515E0
4.463322493E0,9.590301663E-2,-1.002094984E0,1.136633992E0
4.465676035E0,1.010952219E-1,-1.003316641E0,1.125638843E0
4.468029577E0,1.024696305E-1,-1.003469348E0,1.113421798E0
4.470383118E0,1.062874198E-1,-9.962918758E-1,1.101204872E0
4.472736660E0,1.114796251E-1,-9.880454540E-1,1.088987947E0
4.475090202E0,1.165191159E-1,-9.712471366E-1,1.074327588E0
4.477443743E0,1.227803007E-1,-9.546015263E-1,1.060889006E0
4.479797285E0,1.279724985E-1,-9.342908859E-1,1.043785214E0
4.482150827E0,1.330119967E-1,-9.068027735E-1,1.026528835E0
4.484504368E0,1.366770715E-1,-8.768712282E-1,1.010494113E0
4.486857910E0,1.404948682E-1,-8.446490765E-1,9.933903813E-1
4.489211452E0,1.441599578E-1,-8.087617755E-1,9.797990322E-1
4.491564993E0,1.479777545E-1,-7.728744745E-1,9.637642503E-1
4.493918535E0,1.429382563E-1,-7.345438004E-1,9.487984776E-1
4.496272077E0,1.391204596E-1,-6.927008033E-1,9.339854717E-1
4.498625618E0,1.316375881E-1,-6.508577466E-1,9.177979827E-1
4.500979160E0,1.265980899E-1,-6.102364063E-1,9.040539265E-1
4.503332702E0,1.177408099E-1,-5.635066032E-1,8.915315866E-1
4.505686243E0,1.078145429E-1,-5.181511641E-1,8.777875304E-1
4.508039785E0,9.407047927E-2,-4.714213610E-1,8.626690507E-1
4.510393327E0,8.643488586E-2,-4.224008918E-1,8.513683677E-1
4.512746868E0,7.391251624E-2,-3.721587062E-1,8.362498879E-1
4.515100410E0,6.261184067E-2,-3.194731176E-1,8.235748410E-1
4.517453952E0,5.375456065E-2,-2.657185495E-1,8.110524416E-1
4.519807493E0,4.230117425E-2,-2.130329758E-1,8.009734750E-1
4.522161035E0,3.222219273E-2,-1.592784226E-1,7.882983685E-1
4.524514577E0,2.458660305E-2,-1.041494608E-1,7.794411182E-1
4.526868118E0,1.695101149E-2,-5.024218559E-2,7.705838084E-1
4.529221660E0,6.719320081E-3,2.443389036E-3,7.615737915E-1
4.531575254E0,1.527118147E-3,5.635065958E-2,7.527165413E-1
4.533928796E0,-4.886778072E-3,1.065928489E-1,7.463026643E-1
4.536282337E0,-8.857285604E-3,1.545443535E-1,7.398887277E-1
4.538635827E0,-1.160609815E-2,2.024958730E-1,7.336275578E-1
4.540989421E0,-1.557660475E-2,2.480039895E-1,7.272136807E-1
4.543342962E0,-1.695101149E-2,2.910687327E-1,7.197307944E-1
4.545696504E0,-2.092151903E-2,3.341334462E-1,7.133168578E-1
4.548050046E0,-2.489202656E-2,3.749074936E-1,7.082774043E-1
4.550403587E0,-2.870982140E-2,4.132381678E-1,7.006418109E-1
4.552757129E0,-3.268032894E-2,4.503471553E-1,6.980457306E-1
4.555110671E0,-3.909422457E-2,4.839437306E-1,6.928535104E-1
4.557464212E0,-4.291202128E-2,5.150969625E-1,6.902574301E-1
4.559817754E0,-5.054761097E-2,5.438067913E-1,6.888830066E-1
4.562171296E0,-5.818320066E-2,5.712949038E-1,6.897992492E-1
4.564524837E0,-6.215370819E-2,5.929799676E-1,6.922426820E-1
4.566878379E0,-6.597150117E-2,6.132906675E-1,6.957550049E-1
4.569231921E0,-7.116370648E-2,6.313106418E-1,6.992673874E-1
4.571585462E0,-7.269082218E-2,6.468872428E-1,7.040014863E-1
4.573939004E0,-7.650861889E-2,6.589514613E-1,7.101099491E-1
4.576292546E0,-7.543963939E-2,6.685723066E-1,7.174401283E-1
4.578646087E0,-7.437065244E-2,6.759024858E-1,7.235485911E-1
4.580999629E0,-7.207997888E-2,6.807892919E-1,7.333221436E-1
4.583353171E0,-6.856760383E-2,6.760551929E-1,7.432484031E-1
4.585706712E0,-6.123743951E-2,6.713211536E-1,7.543963790E-1
4.588060254E0,-5.268557742E-2,6.606312990E-1,7.643226385E-1
4.590413796E0,-4.153761268E-2,6.487197876E-1,7.730271816E-1
4.592767337E0,-3.283303976E-2,6.284091473E-1,7.831062078E-1
4.595120879E0,-1.924168877E-2,6.105418205E-1,7.931851745E-1
4.597474421E0,-4.428642802E-3,5.914528370E-1,8.008207679E-1
4.599827962E0,1.175880991E-2,5.651864409E-1,8.096780181E-1
4.602181504E0,2.809897438E-2,5.413633585E-1,8.136485219E-1
4.604535046E0,4.550812021E-2,5.114318728E-1,8.202151656E-1
4.606888587E0,6.429167092E-2,4.816530645E-1,8.229639530E-1
4.609242129E0,8.307522535E-2,4.517215490E-1,8.246437907E-1
4.611595671E0,1.006370857E-1,4.193466306E-1,8.261709213E-1
4.613949212E0,1.206423342E-1,3.883461356E-1,8.266290426E-1
4.616302754E0,1.382041872E-1,3.584146202E-1,8.281561732E-1
4.618656296E0,1.559187621E-1,3.284831047E-1,8.273926377E-1
4.621009837E0,1.734806150E-1,2.938175201E-1,8.276980519E-1
4.623363379E0,1.885990947E-1,2.626643181E-1,8.231166601E-1
4.625716921E0,2.024958730E-1,2.302894145E-1,8.222004175E-1
4.628070462E0,2.151709497E-1,1.944021434E-1,8.188407421E-1
4.630424004E0,2.266243398E-1,1.595838517E-1,8.191461563E-1
4.632777546E0,2.394521236E-1,1.259872466E-1,8.121214509E-1
4.635131087E0,2.483094037E-1,9.132166207E-2,8.112051487E-1
4.637484629E0,2.585411072E-1,5.772506446E-2,8.090671897E-1
4.639838171E0,2.675510943E-1,2.535016090E-2,8.031114340E-1
4.642191712E0,2.753393948E-1,-4.581354558E-3,7.973083854E-1
4.644545254E0,2.829749882E-1,-3.222219273E-2,7.925743461E-1
4.646898796E0,2.895416021E-1,-5.864133686E-2,7.878402472E-1
4.649252337E0,2.959555089E-1,-8.261708915E-2,7.808154821E-1
4.651605879E0,3.000787199E-1,-1.053711548E-1,7.722636461E-1
4.653959421E0,3.028275371E-1,-1.282779276E-1,7.650861740E-1
4.656312962E0,3.043546379E-1,-1.499630064E-1,7.579087615E-1
4.658666504E0,3.071034551E-1,-1.702736765E-1,7.481352091E-1
4.661020046E0,3.035911024E-1,-1.907370538E-1,7.432484031E-1
4.663373587E0,2.990097404E-1,-2.099787444E-1,7.322531343E-1
4.665727129E0,2.967190444E-1,-2.293731421E-1,7.238540053E-1
4.668080671E0,2.933593988E-1,-2.473931462E-1,7.140804529E-1
4.670434212E0,2.849602401E-1,-2.641914487E-1,7.041541934E-1
4.672787754E0,2.802261710E-1,-2.776300907E-1,6.919372082E-1
4.675141296E0,2.742704153E-1,-2.884726226E-1,6.795675755E-1
4.677494837E0,2.658712566E-1,-2.982461751E-1,6.661289334E-1
4.679848379E0,2.611372173E-1,-3.042019308E-1,6.562026739E-1
4.682201921E0,2.539597452E-1,-3.092414141E-1,6.438329816E-1
4.684555462E0,2.467822880E-1,-3.153499067E-1,6.291726828E-1
4.686909004E0,2.383831441E-1,-3.177932799E-1,6.143596172E-1
4.689262546E0,2.287622988E-1,-3.203893900E-1,6.007682681E-1
4.691616139E0,2.189887464E-1,-3.193204105E-1,5.896202922E-1
4.693969629E0,2.092151791E-1,-3.194731176E-1,5.770979524E-1
4.696323223E0,1.982199401E-1,-3.206948042E-1,5.671716928E-1
4.698676712E0,1.884463727E-1,-3.220692277E-1,5.572454333E-1
4.701030254E0,1.750077456E-1,-3.210002482E-1,5.485408306E-1
4.703383796E0,1.591257155E-1,-3.210002482E-1,5.384618640E-1
4.705737337E0,1.467560530E-1,-3.176405728E-1,5.285356045E-1
4.708090931E0,1.333174109E-1,-3.153499067E-1,5.184566379E-1
4.710444473E0,1.198787764E-1,-3.165715933E-1,5.073086619E-1
4.712798014E0,1.064401343E-1,-3.144336343E-1,4.961606860E-1
4.715151556E0,9.284878522E-2,-3.109212518E-1,4.860817194E-1
4.717505098E0,7.818844914E-2,-3.074088693E-1,4.772244096E-1
4.719858587E0,6.581879407E-2,-3.075616062E-1,4.685198367E-1
4.722212181E0,5.238015205E-2,-3.040492237E-1,4.598152637E-1
4.724565723E0,3.756710514E-2,-3.005368412E-1,4.509579837E-1
4.726919264E0,2.657185495E-2,-2.947337925E-1,4.410317242E-1
4.729272806E0,1.420219894E-2,-2.924431264E-1,4.346178174E-1
