"Time (s)","Linear Acceleration x (m/s^2)","Linear Acceleration y (m/s^2)","Linear Acceleration z (m/s^2)"
1.578683790E-1,-1.569905281E-1,2.971649170E-2,4.222583771E-2
1.766967640E-1,-8.162164688E-2,-3.028774261E-2,3.494262695E-2
1.955250980E-1,-3.439545631E-2,-1.033172607E-1,5.563259125E-3
2.143534830E-1,5.801630020E-2,-1.405544281E-1,2.150869370E-2
2.331818160E-1,8.254551888E-2,-5.055522919E-2,4.917812347E-2
2.520102020E-1,-3.501820564E-2,5.798625946E-2,3.101921082E-2
2.708385350E-1,-1.698930264E-1,1.097583771E-1,2.221441269E-2
2.896669200E-1,-2.294087410E-2,-5.274677277E-2,-3.562211990E-2
3.084952540E-1,2.133302689E-1,-1.227264404E-1,-4.654741287E-2
3.273236390E-1,3.463714123E-1,-1.607704163E-1,1.037979126E-2
3.461520250E-1,4.618945122E-1,-1.857957840E-1,1.304430962E-1
3.649803580E-1,6.878662109E-1,-3.108968735E-1,9.443283081E-3
3.838086910E-1,5.543313026E-1,-1.937875748E-1,-1.153717041E-1
4.026370770E-1,5.360445976E-1,-1.186580658E-1,-2.407569885E-1
4.214654100E-1,8.245601654E-1,-4.388804436E-1,-4.510366917E-1
4.402937950E-1,1.215670705E0,-7.198100090E-1,-6.146309376E-1
4.591221290E-1,1.597048759E0,-9.372153282E-1,-5.432567596E-1
4.779505140E-1,2.321387291E0,-4.092855453E-1,-3.399679661E-1
4.967788480E-1,2.909589052E0,-3.577075005E-1,6.310081482E-2
5.156072330E-1,2.468864441E0,-1.404018402E-1,-2.004480362E-2
5.344224410E-1,1.518524647E0,-2.018818855E-1,-4.741277695E-1
5.532639520E-1,-4.467935562E-1,1.130290031E0,-1.263902426E0
5.720922850E-1,-1.368066788E0,1.118529320E0,-2.200288296E0
5.909206700E-1,-2.358843327E0,2.730388641E-1,-1.771213770E0
6.097490040E-1,-1.461720467E0,2.468032837E-1,-4.705893993E-1
6.285773890E-1,-6.723866463E-1,4.370641708E-1,3.919646740E-1
6.474057230E-1,-4.809055328E-1,3.229103088E-1,4.334678650E-1
6.662340560E-1,9.335088730E-2,3.415775299E-2,-1.917061806E-1
6.850624410E-1,1.181135893E0,-6.849098206E-2,-6.776711941E-1
7.038907750E-1,1.709046364E0,4.095268250E-2,-1.493284702E-1
7.227191600E-1,8.430082798E-1,6.369838715E-1,3.924674988E-1
7.415474930E-1,-6.325731277E-1,7.411155701E-1,1.074862480E-2
7.603758270E-1,-1.167224884E0,8.556957245E-1,-6.325061321E-1
7.792042120E-1,-7.047071457E-1,8.212051392E-1,-6.334702969E-1
7.980325450E-1,-4.414944649E-1,9.095754623E-1,3.187251091E-2
8.168609310E-1,-9.339084625E-1,9.339246750E-1,5.894720554E-1
8.356892640E-1,-1.606521130E0,5.592718124E-1,-5.596661568E-2
8.545176500E-1,-1.389282703E0,6.374073029E-2,-6.466737986E-1
8.733459830E-1,-9.065322876E-1,2.101049423E-1,-6.128679514E-1
8.921743160E-1,-3.543705940E-1,4.692401886E-1,-2.970459461E-1
9.110027020E-1,1.354205608E-1,4.308366776E-1,8.800554276E-2
9.298310350E-1,5.065665245E-1,2.975473404E-1,-2.544016838E-1
9.486594200E-1,7.148063183E-1,2.028837204E-1,-6.205160618E-1
9.674877540E-1,8.741443157E-1,1.583147049E-1,-5.502195358E-1
9.863161390E-1,7.829251289E-1,-6.335449219E-2,-8.438591957E-1
1.005144473E0,6.646292210E-1,-4.414110184E-1,-1.701503038E0
1.023972806E0,1.082813978E0,-9.325366020E-1,-2.278613329E0
1.042801191E0,1.849668980E0,-6.642131805E-1,-2.234999418E0
1.061629525E0,1.884161472E0,2.905807495E-1,-1.567274094E0
1.080457910E0,1.680227757E0,8.893547058E-1,-1.095881343E0
1.099286243E0,1.385238409E0,1.263947487E0,-9.053465128E-1
1.118114577E0,8.796076775E-1,1.156729698E0,-1.180976510E0
1.136942962E0,9.009807110E-1,7.609033585E-1,-1.974746346E0
1.155771295E0,9.187076092E-1,5.387678146E-1,-2.443906069E0
1.174599629E0,6.226029396E-1,5.101099014E-1,-2.347544193E0
1.193428014E0,3.427309990E-1,8.308439255E-1,-1.973579049E0
1.212256348E0,2.837710381E-1,1.096027374E0,-1.754394889E0
1.231084733E0,2.738358974E-1,1.272682190E0,-1.755297303E0
1.249913066E0,-2.639234066E-1,1.473343849E0,-2.076257467E0
1.268741400E0,-1.170475721E0,1.406620979E0,-2.648096085E0
1.287569785E0,-1.854924202E0,9.551897049E-1,-3.267879963E0
1.306398118E0,-2.213319063E0,5.437746048E-1,-3.401186228E0
1.325226452E0,-2.886816978E0,4.445514679E-1,-3.305854797E0
1.344054837E0,-3.290984631E0,-1.650714874E-2,-3.108011723E0
1.362883170E0,-3.068672657E0,-2.945022583E-1,-3.249700546E0
1.381711556E0,-2.620495319E0,-6.692457199E-1,-2.770952702E0
1.400539889E0,-1.849292517E0,-5.869245529E-1,-1.877833843E0
1.419368223E0,-1.101254225E0,-7.283325195E-1,-1.658828378E0
1.438196608E0,-2.099217176E-1,-6.411647797E-1,-9.645775557E-1
1.457024941E0,6.936943531E-1,-3.448820114E-1,-5.301272273E-1
1.475853275E0,9.062119722E-1,6.525325775E-2,-6.576116085E-1
1.494668535E0,1.175842285E0,1.438277245E0,6.812303662E-1
1.513509993E0,9.284906387E-1,3.593470573E0,6.154903412E0
1.532338379E0,1.640387416E0,3.603400230E0,6.036941528E0
1.551153587E0,2.013197422E0,1.157466888E0,1.441812873E0
1.569995045E0,3.009958863E-1,-5.270767212E-2,-7.058132887E-1
1.588823431E0,-8.513799310E-1,2.377033234E-2,-2.043143988E0
1.607651764E0,-1.344514489E0,-3.675994873E-1,-1.949579954E0
1.626480150E0,-5.199541450E-1,-6.955556870E-1,-1.381601810E0
1.645308483E0,3.355259597E-1,-7.691574097E-1,-6.835957170E-1
1.664136816E0,6.523114443E-1,-7.321186066E-1,-1.584362984E-2
1.682965202E0,8.212426901E-1,-7.159290314E-1,1.133943796E-1
1.701793535E0,4.974140227E-1,-4.640684128E-1,3.871184587E-1
1.720621868E0,-2.208936810E-1,-5.168685913E-1,1.484937668E-1
1.739450254E0,-7.378178835E-1,-1.029619217E0,-5.835553408E-1
1.758278587E0,-1.007705569E0,-1.198129654E0,-8.391557932E-1
1.777106920E0,-5.811327100E-1,-1.008476257E0,-8.458627462E-1
1.795935306E0,1.050383002E-1,-7.008619308E-1,-7.673380375E-1
1.814763639E0,2.022679150E-2,-3.092479706E-2,-5.656697750E-1
1.833591973E0,-2.398374379E-1,3.766450882E-1,-4.979195595E-1
1.852420358E0,-3.253402114E-1,-1.881237030E-1,-4.097672701E-1
1.871248691E0,-5.889515281E-1,-8.818483353E-1,-4.284682274E-1
1.890077025E0,-1.107921481E0,-1.475703239E0,-4.860963821E-1
1.908905410E0,-1.589799523E0,-1.482906342E0,-3.535585403E-1
1.927733743E0,-1.839296579E0,-1.389268875E0,1.967370510E-2
1.946562077E0,-1.737121344E0,-1.024097443E0,8.831864595E-1
1.965390462E0,-1.445212960E0,-3.947601318E-1,1.889876723E0
1.984218795E0,-1.118280053E0,-9.415912628E-2,2.464213133E0
2.003047129E0,-5.868210793E-1,-8.467864990E-2,2.559762001E0
2.021875514E0,-3.251588345E-2,2.246913910E-1,2.514214754E0
2.040703848E0,4.587554932E-1,6.088294983E-1,2.435838223E0
2.059532233E0,8.862166405E-1,8.482751846E-1,2.424272060E0
2.078360566E0,1.327735662E0,9.735393524E-1,2.155036449E0
2.097188900E0,1.609993815E0,1.152278900E0,1.845476389E0
2.116017233E0,1.710113287E0,1.136182785E0,1.530822396E0
2.134845618E0,1.612160087E0,9.362049103E-1,1.369652748E0
2.153673952E0,1.525729895E0,7.131404877E-1,1.196823120E0
2.172502285E0,1.367554188E0,5.657472610E-1,9.025599957E-1
2.191330670E0,1.170766473E0,7.003908157E-1,5.089616776E-1
2.210159004E0,1.104161263E0,7.228107452E-1,2.869689465E-1
2.228987337E0,1.278061390E0,5.636520386E-1,3.413294554E-1
2.247815723E0,1.584149480E0,4.350595474E-1,5.214525461E-1
2.266644056E0,1.574543238E0,4.324493408E-1,3.286656141E-1
2.285472389E0,1.179490566E0,6.540174484E-1,-9.619289637E-2
2.304300775E0,9.483261108E-1,8.057022095E-1,-1.851297021E-1
2.323129108E0,1.116333723E0,5.190153122E-1,-1.227380633E-1
2.341957441E0,1.288239598E0,-1.030673981E-1,-1.930964589E-1
2.360785827E0,9.993236065E-1,-3.684492111E-1,-3.247984648E-1
2.379614160E0,6.970951557E-1,-5.833044052E-1,-6.046439409E-1
2.398442493E0,5.438499451E-1,-4.273986816E-1,-7.756329775E-1
2.417270879E0,3.871412277E-1,9.070301056E-2,-9.244286418E-1
2.436099212E0,3.513431549E-2,7.097082138E-1,-8.583193421E-1
2.454927545E0,-1.882996559E-1,8.285465240E-1,-9.131653309E-1
2.473755879E0,-4.405817986E-1,4.873228073E-1,-9.053137302E-1
2.492584264E0,-7.700240612E-1,8.927536011E-2,-9.327133894E-1
2.511412598E0,-1.375641346E0,-1.994342804E-1,-8.884940147E-1
2.530240931E0,-2.024116278E0,-4.214496613E-1,-8.512917161E-1
2.549069264E0,-2.481272221E0,-5.569896698E-1,-7.767809629E-1
2.567897650E0,-2.740288734E0,-6.986465454E-1,-4.582060575E-1
2.586725983E0,-2.877333641E0,-9.164829254E-1,-3.091949224E-1
2.605554316E0,-3.017590046E0,-1.252948761E0,-2.376915812E-1
2.624382702E0,-3.125625134E0,-1.541442394E0,-2.010260820E-1
2.643211035E0,-3.167055368E0,-1.878874779E0,-2.111700773E-1
2.662039368E0,-3.294026375E0,-1.840610027E0,-2.419862151E-1
2.680867702E0,-3.475502729E0,-1.726227760E0,-2.530288696E-1
2.699696087E0,-3.467379808E0,-1.570880890E0,-3.194057345E-1
2.718524420E0,-3.186050653E0,-1.414730072E0,-3.012349010E-1
2.737352754E0,-2.612141371E0,-9.128322601E-1,-2.851801813E-1
2.756181087E0,-2.203032017E0,-3.242092133E-1,-3.388994932E-1
2.775009473E0,-1.996880770E0,2.408981323E-3,-2.447122335E-1
2.793837806E0,-1.721146345E0,2.709751129E-1,-4.219408929E-1
2.812666139E0,-1.307483196E0,5.738191605E-1,-6.027683616E-1
2.831494473E0,-8.892817497E-1,7.202816010E-1,-2.309061289E-1
2.850322858E0,-2.809467316E-1,1.095120430E0,4.812688828E-1
2.869151191E0,7.616043091E-1,1.587218285E0,1.250134945E0
2.887979525E0,1.501282215E0,1.526103020E0,1.744324803E0
2.906807858E0,1.464086533E0,1.463201523E0,1.570135832E0
2.925636191E0,1.270554304E0,1.512734413E0,1.359464645E0
2.944464577E0,1.292279243E0,1.616030693E0,1.383229017E0
2.963292910E0,1.646843672E0,1.892631531E0,1.412993908E0
2.982121243E0,1.758749485E0,2.829897881E0,1.272865057E0
3.000949577E0,1.908440351E0,3.936520576E0,1.291367173E0
3.019777962E0,2.932770252E0,4.544464111E0,1.417123675E0
3.038606295E0,2.417770863E0,4.705452919E0,1.109338284E0
3.057434629E0,1.296321154E0,3.663592339E0,9.334377050E-1
3.076249837E0,1.198127985E0,2.266562462E0,5.629336834E-1
3.095091295E0,1.404530048E0,6.988954544E-1,3.050438166E-1
3.113919681E0,1.583952308E0,-3.723907471E-1,-3.007248640E-1
3.132748014E0,2.156607866E0,-1.168170452E0,-9.461472034E-1
3.151576348E0,2.597758770E0,-1.564051628E0,-9.239120483E-1
3.170404681E0,2.896287441E0,-1.700276375E0,-9.247694016E-1
3.189233014E0,2.971454859E0,-1.361300945E0,-1.367106557E0
3.208061400E0,2.901506186E0,-7.865190506E-1,-1.612243772E0
3.226889733E0,2.269941092E0,8.816909790E-2,-1.586036563E0
3.245718066E0,1.471798182E0,4.601211548E-1,-1.846530199E0
3.264546400E0,4.406298399E-1,1.124380112E0,-2.222678661E0
3.283374733E0,-3.433289528E-1,1.782351494E0,-1.861358643E0
3.302203118E0,-5.593094826E-1,9.629611969E-1,-1.162230015E0
3.321031452E0,-3.012789488E-1,-2.815294266E-1,-8.056824207E-1
3.339859785E0,-1.869353056E-1,-9.387321472E-1,-4.007940292E-1
3.358688118E0,-3.657763004E-1,-8.230051994E-1,-8.282661438E-2
3.377516504E0,-7.428704500E-1,-6.465978622E-1,1.402649879E-1
3.396344837E0,-9.312396049E-1,-6.651096344E-1,3.844532967E-1
3.415173170E0,-8.204882145E-1,-9.230771065E-1,5.034060478E-1
3.434001504E0,-8.849856853E-1,-1.119586945E0,5.850229263E-1
3.452829837E0,-1.218216658E0,-1.372060776E0,2.527298927E-1
3.471658223E0,-1.702649713E0,-1.695890903E0,4.565334320E-2
3.490486556E0,-1.772336006E0,-1.732183456E0,2.081513405E-1
3.509314889E0,-1.656518579E0,-1.849266529E0,3.552255630E-1
3.528143223E0,-1.555831313E0,-1.797673702E0,5.369877815E-1
3.546971556E0,-1.523518682E0,-1.355974197E0,8.526639938E-1
3.565799941E0,-1.357105374E0,-1.240276814E0,9.922552109E-1
3.584628275E0,-1.406698465E0,-9.392294884E-1,1.022837162E0
3.603456608E0,-1.648563981E0,-8.295183182E-1,1.398602962E0
3.622284941E0,-1.686920047E0,-8.001313210E-1,1.823437691E0
3.641113275E0,-1.877678156E0,-1.110265255E0,2.068096638E0
3.659941608E0,-2.326478720E0,-1.460624218E0,1.991889477E0
3.678769993E0,-2.913018227E0,-1.456014633E0,1.580214977E0
3.697598327E0,-3.245956182E0,-1.533660412E0,9.738564491E-1
3.716426660E0,-2.920812368E0,-1.177442551E0,7.538313866E-1
3.735254993E0,-2.247076750E0,1.179246902E-1,1.037758827E0
3.754083327E0,-1.875073314E0,1.729340553E0,1.011800766E0
3.772911712E0,-1.709491491E0,1.808402061E0,6.860098839E-1
3.791740045E0,-1.216403008E0,7.176275253E-1,1.019921303E-1
3.810568379E0,-8.731327057E-1,1.096558571E-1,-3.717322350E-1
3.829396712E0,-6.606826782E-1,-2.269568443E-1,-7.516903877E-1
3.848225045E0,-4.353771210E-1,-3.089075089E-1,-1.219922543E0
3.867053379E0,-4.139587879E-1,9.100770950E-2,-1.768183708E0
3.885881764E0,-6.954128742E-1,7.159843445E-1,-2.045758009E0
3.904710098E0,-8.304932117E-1,6.970543861E-1,-2.068578959E0
3.923538431E0,-4.021387100E-1,7.124648094E-1,-2.280678988E0
3.942366764E0,-2.017982006E-1,9.308471680E-1,-2.506609440E0
3.961195098E0,-1.440877914E-1,1.195410728E0,-2.736081123E0
3.980023431E0,2.179975510E-1,1.956370354E0,-2.503592730E0
3.998851816E0,7.499492168E-1,1.798796654E0,-2.115707159E0
4.017680150E0,1.726921320E0,1.424592972E0,-1.916815281E0
4.036508483E0,2.171437263E0,1.294230461E0,-1.847462893E0
4.055336816E0,1.880106449E0,1.304281235E0,-1.822052956E0
4.074165150E0,1.673501253E0,9.941663742E-1,-1.776673794E0
4.092993483E0,1.637928724E0,8.412289619E-1,-1.659991980E0
4.111821816E0,1.576036453E0,8.961062431E-1,-1.794826508E0
4.130650202E0,1.387983561E0,1.173233509E0,-1.726572514E0
4.149478535E0,1.413530588E0,1.644585609E0,-1.276444197E0
4.168306868E0,1.559265375E0,1.624686241E0,-7.906444073E-1
4.187135202E0,1.641433477E0,1.696192741E0,-7.389569283E-2
4.205963535E0,1.308536768E0,1.849813461E0,1.405296326E-1
4.224791868E0,7.313942909E-1,1.792922020E0,1.483726501E-1
4.243620254E0,6.576848030E-1,1.614798069E0,1.524915695E-1
4.262448587E0,1.097262859E0,1.487921238E0,3.820304871E-1
4.281276920E0,1.756114483E0,1.120485783E0,9.521679878E-1
4.300105254E0,2.250425816E0,9.997444153E-1,1.545650005E0
4.318933587E0,2.217528820E0,1.236423969E0,1.665107489E0
4.337761920E0,1.380227327E0,2.251729488E0,1.520993948E0
4.356590254E0,3.485150337E-1,2.620663643E0,1.210539341E0
4.375418587E0,-3.245544434E-2,1.630365372E0,1.078292847E0
4.394246973E0,-6.242036819E-2,2.302751541E-1,7.487032413E-1
4.413075306E0,-3.050804138E-2,-5.306901932E-1,7.368850708E-2
4.431903639E0,-9.193229675E-2,-7.470326424E-1,-3.671836853E-2
4.450731973E0,2.440280914E-1,-1.459428310E0,-9.729909897E-2
4.469560306E0,8.683042526E-1,-2.070336819E0,-3.287165165E-1
4.488388639E0,1.175001860E0,-1.797961235E0,-3.266842365E-1
4.507216973E0,1.222790003E0,-1.055577755E0,-4.301285744E-2
4.526045358E0,1.008288383E0,-5.230188370E-1,7.595491409E-2
4.544873691E0,5.327770710E-1,-3.184413910E-2,3.304171562E-2
4.563702025E0,-3.273541927E-1,2.148752213E-1,2.261588573E-1
4.582530358E0,-1.017486095E0,-1.456804276E-1,3.688304424E-1
4.601358691E0,-1.451058865E0,-6.257910728E-1,3.791279793E-1
4.620187025E0,-1.795246601E0,-7.424635887E-1,5.960347652E-1
4.639015358E0,-1.958209753E0,-8.745331764E-1,7.989380360E-1
4.657843691E0,-1.850945950E0,-9.602651596E-1,1.167797804E0
4.676672025E0,-1.609749556E0,-8.337163925E-1,1.583971500E0
4.695500358E0,-1.292223930E0,-6.180038452E-1,1.783567190E0
4.714328743E0,-1.146856308E0,-4.345865250E-1,1.848853350E0
4.733157077E0,-1.025496244E0,-2.907447815E-1,1.777683735E0
4.751985410E0,-9.220294952E-1,-3.199892044E-1,1.550778866E0
4.770813743E0,-1.056398749E0,-3.330183029E-1,1.671624660E0
4.789642077E0,-1.102652311E0,-3.669023514E-1,1.630045891E0
4.808470410E0,-1.406128407E0,-3.959226608E-1,1.542814493E0
4.827298743E0,-1.671638131E0,-7.900695801E-1,9.921877384E-1
4.846127077E0,-1.686515450E0,-1.137224674E0,6.303184032E-1
4.864955410E0,-1.570580125E0,-8.989820480E-1,9.246969223E-1
4.883783743E0,-1.427406311E0,-9.707541466E-1,1.196392298E0
4.902612129E0,-1.494026780E0,-9.647674561E-1,1.257540464E0
4.921440462E0,-2.028692961E0,-8.828315735E-1,1.398544073E0
4.940268795E0,-2.562030315E0,-9.517073631E-1,1.232715368E0
4.959097129E0,-2.950299263E0,-9.279456139E-1,9.943206310E-1
4.977925462E0,-3.093166351E0,-6.495857239E-1,7.281460762E-1
4.996753795E0,-2.846236229E0,-2.842998505E-2,6.358144283E-1
5.015582129E0,-2.258925915E0,5.189409256E-1,6.120092869E-1
5.034410462E0,-1.554675698E0,8.811836243E-1,5.669627190E-1
5.053238795E0,-9.081957340E-1,9.297695160E-1,2.309675217E-1
5.072067181E0,-3.274282217E-1,1.226857185E0,-2.334687710E-1
5.090895514E0,8.561658859E-2,1.749642372E0,-5.679848194E-1
5.109723848E0,4.625630379E-1,2.405164719E0,-1.654672623E-2
5.128552181E0,9.608992338E-1,1.924469948E0,-1.709270477E-1
5.147380514E0,1.073395729E0,1.280570030E0,-9.007341862E-1
5.166208848E0,1.188239217E0,9.579792023E-1,-1.391991377E0
5.185037181E0,1.440865278E0,6.446981430E-1,-1.858616590E0
5.203865514E0,1.631302357E0,4.849262238E-1,-2.112482548E0
5.222693848E0,1.935621858E0,3.867092133E-1,-2.496372223E0
5.241522181E0,2.320244074E0,5.256156921E-1,-2.783763170E0
5.260350514E0,2.893303633E0,8.095178604E-1,-2.618687391E0
5.279178848E0,3.396266460E0,1.195349693E0,-2.346666098E0
5.298007181E0,3.197956800E0,1.136471748E0,-2.182824850E0
5.316835566E0,2.763186216E0,1.187400341E0,-2.240594387E0
5.335663900E0,2.169147491E0,8.966603279E-1,-2.269365311E0
5.354492233E0,1.516183615E0,4.543561935E-1,-2.226044893E0
5.373320566E0,8.513083458E-1,9.233045578E-2,-2.010261774E0
5.392148900E0,2.582349777E-1,-1.023330688E-1,-1.583461285E0
5.410977233E0,-2.318232059E-1,-4.202375412E-1,-1.496693611E0
5.429805566E0,-7.423324585E-1,-6.502995491E-1,-1.614864588E0
5.448633900E0,-1.177798986E0,-2.341308594E-1,-1.658522844E0
5.467462233E0,-1.336068869E0,1.501750946E-1,-1.953569412E0
5.486290566E0,-8.687167168E-1,3.466296196E-1,-1.877756357E0
5.505118900E0,-4.468240738E-1,1.026253700E0,-1.059228659E0
5.523947233E0,-3.762621880E-1,1.104938984E0,-4.665236473E-1
5.542775618E0,-5.979099274E-1,7.516641617E-1,-4.833307266E-1
5.561603952E0,-9.240164757E-1,9.954400063E-1,2.181434631E-1
5.580432285E0,-7.132210732E-1,8.770890236E-1,3.323111534E-1
5.599260618E0,-8.166093826E-1,6.995296478E-1,5.572099686E-1
5.618088952E0,-1.595311165E0,5.302472115E-1,1.033870220E0
5.636917285E0,-2.435227871E0,-2.039432526E-3,1.096725464E0
5.655745618E0,-2.807028294E0,-3.481736183E-1,1.078341007E0
5.674574004E0,-2.962764263E0,-5.458407402E-1,9.442739487E-1
5.693402337E0,-2.817789078E0,-6.822476387E-1,7.619781494E-1
5.712230670E0,-2.305879593E0,-1.082114697E0,2.157239914E-1
5.731059004E0,-1.719416142E0,-1.452067852E0,-4.558980465E-1
5.749887337E0,-9.923186302E-1,-1.470229149E0,-9.530329704E-1
5.768715670E0,1.043748856E-2,-8.140163422E-1,-9.920547009E-1
5.787544004E0,1.037168503E-1,-2.636122704E-1,-1.028348684E0
5.806372337E0,1.201248169E-2,-6.418828964E-1,-1.447610617E0
5.825200670E0,-9.152412415E-3,-5.496377945E-1,-1.224346161E0
5.844029056E0,-3.350591660E-1,-9.450807571E-1,-1.444224358E0
5.862857389E0,-6.998496056E-1,-9.042100906E-1,-1.585776567E0
5.881685723E0,-5.386700630E-1,-9.554758072E-1,-1.367458344E0
5.900514056E0,-4.821200371E-1,-6.648397446E-1,-8.698384762E-1
5.919342389E0,-9.855809212E-1,-7.049345970E-1,-6.260578632E-1
5.938170723E0,-1.304773808E0,-7.628030777E-1,-2.336854935E-1
5.956999056E0,-1.471580029E0,-7.009243965E-1,8.355617523E-2
5.975827389E0,-1.573879242E0,-6.364665031E-1,1.371359825E-1
5.994655723E0,-1.724318981E0,-2.079777718E-1,1.388578415E-1
6.013484108E0,-1.485991001E0,4.112744331E-1,5.601048470E-1
6.032312441E0,-1.152872086E0,7.155237198E-1,6.679878235E-1
6.051140775E0,-1.026671410E0,9.233493805E-1,4.952383041E-1
6.069969108E0,-7.137818336E-1,8.907179832E-1,3.262739182E-1
6.088797441E0,-5.233969688E-1,6.564450264E-1,3.179554939E-1
6.107625775E0,-4.502353668E-1,3.920755386E-1,8.485174179E-2
6.126454108E0,-2.893681526E-1,6.727728844E-1,-2.989768982E-4
6.145282441E0,3.605127335E-2,1.133417606E0,-5.442056656E-1
6.164110775E0,2.277383804E-1,1.719717979E0,-5.637946129E-1
6.182939108E0,2.830405235E-1,2.122914791E0,-7.052397728E-1
6.201767441E0,3.811831474E-1,2.015203953E0,-9.764609337E-1
6.220595775E0,6.194915771E-1,2.024547100E0,-1.048926353E0
6.239424108E0,1.207411289E0,2.107308865E0,-8.705186844E-1
6.258252493E0,1.648357868E0,2.162072182E0,-7.410535812E-1
6.277080827E0,1.860625267E0,2.079462528E0,-4.974093437E-1
6.295909160E0,1.993182182E0,1.988820076E0,-3.049602509E-1
6.314737493E0,2.061675549E0,1.901383877E0,-2.520327568E-1
6.333565827E0,2.111635685E0,2.105943203E0,-2.301898003E-1
6.352394160E0,2.217417240E0,2.431397915E0,-3.328986168E-1
6.371222493E0,2.144845963E0,2.689668655E0,-2.420835495E-1
6.390050827E0,2.516693115E0,2.573835373E0,4.644393921E-3
6.408879160E0,2.844891787E0,2.251551151E0,6.636285782E-2
6.427707493E0,2.658607006E0,2.074562073E0,1.600456238E-2
6.446535827E0,2.286410570E0,1.867846727E0,-1.439981461E-1
6.465364160E0,1.982017994E0,1.648325920E0,-1.426472664E-1
6.484192493E0,1.682802200E0,1.594469786E0,1.694049835E-1
6.503020827E0,1.382821083E0,1.369928598E0,4.471030235E-1
6.521849160E0,1.132831573E0,1.260179043E0,7.636790276E-1
6.540677493E0,9.031696320E-1,1.223275185E0,9.318156242E-1
6.559505827E0,6.353030205E-1,1.110589743E0,7.825798988E-1
6.578334160E0,4.333200455E-1,1.093013525E0,6.514911652E-1
6.597162493E0,3.354744911E-1,1.011219263E0,4.197244644E-1
6.615990879E0,3.305382729E-1,1.072658300E0,3.734402657E-1
6.634819160E0,1.718344688E-1,1.235183001E0,4.965605736E-1
6.653647545E0,1.028785706E-1,1.028373241E0,8.758797646E-1
6.672475827E0,-1.886606216E-1,8.705246449E-1,1.065726757E0
6.691304160E0,-6.943922043E-1,4.133777618E-1,4.846963882E-1
6.710132545E0,-9.092631340E-1,-3.324089050E-1,-4.664535522E-1
6.728960827E0,-1.125728607E0,-4.723901749E-1,-1.254653454E0
6.747789212E0,-7.988033295E-1,-4.421579838E-1,-1.222525597E0
6.766617545E0,-1.834344864E-1,-2.391941547E-1,-8.121585846E-1
6.785445879E0,1.935291290E-1,-2.536282539E-1,-6.510725021E-1
6.804274212E0,2.403969765E-1,-3.694760799E-1,-6.082010269E-1
6.823102545E0,7.629823685E-2,-3.950395584E-1,-8.899316788E-1
6.841930879E0,-2.415223122E-1,-5.019981861E-1,-1.012068748E0
6.860759212E0,-3.295650482E-1,-3.928242922E-1,-8.089146614E-1
6.879587545E0,-2.884674072E-2,-4.154284000E-1,-5.565195084E-1
6.898415879E0,3.697166443E-1,-2.531425953E-1,8.616352081E-2
6.917244160E0,7.169775963E-1,2.046585083E-3,7.753958702E-1
6.936072493E0,9.205842018E-1,3.855490685E-2,7.762880325E-1
6.954900827E0,7.084350586E-1,-2.182018757E-1,2.556052208E-1
6.973729160E0,6.378955841E-1,-2.768324614E-1,-4.225826263E-2
6.992557493E0,5.593981743E-1,-1.709312201E-1,-6.027698517E-2
7.011385827E0,6.486763954E-1,-1.452803612E-1,-6.201791763E-2
7.030214160E0,5.266542435E-1,-5.865931511E-2,-2.664341927E-1
7.049042493E0,2.184548378E-1,-9.875106812E-2,-3.729333878E-1
7.067870827E0,9.769487381E-2,-3.479745388E-1,-5.497508049E-1
7.086699160E0,-7.263708115E-2,-5.875281096E-1,-7.966856956E-1
7.105527493E0,-2.340807915E-1,-6.790367365E-1,-9.602169991E-1
7.124355827E0,-2.016501427E-1,-7.017158270E-1,-9.870615005E-1
7.143184160E0,-1.038694382E-1,-7.219942808E-1,-8.531575203E-1
7.162012493E0,-1.715378761E-1,-6.187305450E-1,-6.269783974E-1
7.180840827E0,-2.142109871E-1,-6.894637346E-1,-3.643097878E-1
7.199669160E0,-3.301067352E-1,-6.775827408E-1,-1.972827911E-1
7.218497493E0,-3.533458710E-1,-5.006930828E-1,-7.624101639E-2
7.237325827E0,-4.096145630E-1,-2.954317331E-1,1.231169701E-1
7.256154160E0,-2.901740074E-1,-3.032025099E-1,3.304967880E-1
7.274982493E0,-1.765408516E-1,-3.068861961E-1,3.505535126E-1
7.293810827E0,-1.659216881E-1,-3.035609722E-1,3.482499123E-1
7.312639160E0,6.717824936E-2,-1.766072512E-1,4.347262383E-1
7.331467493E0,2.761158943E-1,-9.242689610E-2,4.410781860E-1
7.350295827E0,3.642249107E-1,-1.246140003E-1,4.875411987E-1
7.369124160E0,3.332486153E-1,-7.464730740E-2,6.355667114E-1
7.387952493E0,2.514791489E-1,-5.558192730E-2,5.113592148E-1
7.406780827E0,1.388258934E-1,-1.253192425E-1,4.459586143E-1
7.425609160E0,1.373538971E-1,-1.002604961E-1,6.351337433E-1
7.444437441E0,1.514735222E-1,-1.315355301E-1,9.078397751E-1
7.463265775E0,6.426048279E-2,-1.792231798E-1,9.078421593E-1
7.482094108E0,-1.079607010E-2,-2.967048883E-1,8.256072998E-1
7.500922441E0,-2.660226822E-2,-2.965984344E-1,9.713630676E-1
7.519750775E0,-4.091119766E-2,-2.830256224E-1,1.058124065E0
7.538579108E0,-2.464675903E-1,-7.337856293E-2,9.401783943E-1
7.557407441E0,-5.550279617E-1,9.878408909E-2,8.711805344E-1
7.576235775E0,-5.592265129E-1,2.181712389E-1,9.634971619E-1
7.595064108E0,-5.971150398E-1,1.294885874E-1,8.825569153E-1
7.613892441E0,-5.936765671E-1,9.429812431E-2,6.205587387E-1
7.632720775E0,-5.606522560E-1,1.869904995E-1,3.686580658E-1
7.651549108E0,-3.562340736E-1,2.427879572E-1,9.570121765E-2
7.670377441E0,-9.492444992E-2,3.949325085E-1,-1.320528984E-1
7.689205775E0,1.660413742E-1,5.077260733E-1,-2.092533112E-1
7.708034108E0,4.192891121E-1,5.337600708E-1,-2.413830757E-1
7.726862389E0,6.462712288E-1,5.347896218E-1,-2.730059624E-1
7.745690723E0,6.638202667E-1,5.227541327E-1,-3.171453476E-1
7.764519056E0,5.627827644E-1,5.519701242E-1,-4.427170753E-1
7.783347389E0,3.040671349E-1,6.237798929E-1,-4.802918434E-1
7.802175723E0,2.132878304E-1,6.477631330E-1,-5.563249588E-1
7.821004056E0,1.810722351E-1,6.976736188E-1,-5.131583214E-1
7.839832389E0,1.715097427E-1,7.414971590E-1,-4.638452530E-1
7.858660723E0,1.719689369E-1,7.589458227E-1,-3.633346558E-1
7.877489056E0,1.166005135E-1,7.841687799E-1,-3.786511421E-1
7.896317389E0,3.394651413E-2,6.170296669E-1,-4.097151756E-1
7.915145670E0,5.906581879E-3,5.460072756E-1,-5.057263374E-1
7.933974004E0,1.936674118E-2,4.826806486E-1,-4.897131920E-1
7.952802337E0,2.049746513E-1,4.614422023E-1,-4.037756920E-1
7.971630670E0,3.037385941E-1,3.390257657E-1,-3.995995522E-1
7.990459004E0,2.152395248E-1,3.586171865E-1,-4.333796501E-1
8.009287337E0,7.777357101E-2,2.642636299E-1,-5.136094093E-1
8.028115670E0,-3.461694717E-2,1.860703826E-1,-4.998855591E-1
8.046944004E0,-1.249232292E-1,1.388143301E-1,-4.965381622E-1
8.065772337E0,-2.191629410E-1,9.930163622E-2,-5.128188133E-1
8.084600670E0,-2.608237267E-1,9.153813124E-2,-3.471455574E-1
8.103428952E0,-2.351832390E-1,1.645469666E-1,-2.626867294E-1
8.122257285E0,-2.186746597E-1,1.664309502E-1,-1.927099228E-1
8.141085618E0,-1.456332207E-1,2.363364398E-1,-7.090282440E-2
8.159913952E0,2.764511108E-2,3.105275333E-1,4.753875732E-2
8.178742285E0,1.360735893E-1,3.560681343E-1,1.152653694E-1
8.197570618E0,2.582893372E-1,2.882733643E-1,1.007623672E-1
8.216398952E0,4.182815552E-1,3.093230426E-1,3.992176056E-2
8.235227285E0,4.356174469E-1,2.320853174E-1,-2.692174911E-2
8.254055566E0,5.275845528E-1,1.507419348E-1,-1.190891266E-1
8.272883900E0,4.600057602E-1,1.972735524E-1,-1.331477165E-1
8.291712233E0,4.486165047E-1,8.591014147E-2,-1.541233063E-1
8.310540566E0,4.194951057E-1,5.764529109E-2,-2.265081406E-1
8.329368900E0,3.026938438E-1,8.653545380E-2,-2.579803467E-1
8.348197233E0,3.255062103E-1,8.433252573E-2,-2.491221428E-1
8.367025566E0,3.813691139E-1,8.714890480E-2,-2.103528976E-1
8.385853848E0,2.547383308E-1,7.598763704E-2,-1.195611954E-1
8.404682181E0,1.292171478E-1,-5.523672700E-2,-9.190654755E-2
8.423510514E0,-1.766347885E-2,-1.117204130E-1,-8.120155334E-2
8.442338848E0,-1.654095650E-1,-1.419843137E-1,-5.824184418E-2
8.461167181E0,-3.370280266E-1,-1.164469421E-1,-1.125912666E-1
8.479995514E0,-3.587002754E-1,-1.975766420E-1,-1.516876221E-1
8.498823848E0,-3.549332619E-1,-2.169902921E-1,-1.294355392E-1
8.517652129E0,-2.302613258E-1,-2.500103712E-1,-1.569423676E-1
8.536480462E0,-1.577086449E-1,-1.627169847E-1,-2.114830017E-1
8.555308795E0,-1.292262077E-1,-1.038747430E-1,-1.733980179E-1
8.574137129E0,-2.110195160E-2,-1.894073486E-1,-2.110037804E-1
8.592965462E0,8.890151978E-3,-1.659902334E-1,-2.127442360E-1
8.611793795E0,1.060051918E-1,-1.671049595E-1,-1.290407181E-1
8.630622077E0,1.337251663E-1,-1.943559647E-1,-1.363949776E-1
8.649450410E0,1.413717270E-1,-2.182475328E-1,-1.519870758E-2
8.668278743E0,7.454395294E-2,-1.666184664E-1,6.552171707E-2
8.687107077E0,-9.455060959E-2,-2.052524686E-1,2.538394928E-2
8.705935410E0,-2.960996628E-1,-1.640928388E-1,2.502536774E-2
8.724763743E0,-3.549585342E-1,-1.958265901E-1,7.283592224E-2
8.743592025E0,-4.512453079E-1,-5.119955540E-2,4.755020142E-2
8.762656920E0,-5.564260483E-1,-8.656388521E-2,4.552841187E-3
8.781861504E0,-6.063919067E-1,-7.284909487E-2,6.216764450E-2
8.801066087E0,-6.281833649E-1,-1.363388896E-1,1.413154602E-2
8.820270670E0,-7.522773743E-1,-6.593430042E-2,-1.655578613E-3
8.839475254E0,-7.686738968E-1,-2.136881948E-1,-2.009773254E-1
8.858679785E0,-7.423415184E-1,-2.652783394E-1,-4.210162163E-1
8.877743848E0,-5.976462364E-1,-3.392929435E-1,-7.164912224E-1
8.896572181E0,-4.144892693E-1,-3.858400583E-1,-8.967385292E-1
8.915400514E0,-2.181992531E-1,-3.950938582E-1,-9.817748070E-1
8.934228848E0,-1.887774467E-1,-4.613073170E-1,-1.118977547E0
8.953057129E0,-1.511664391E-1,-4.506487548E-1,-1.058530807E0
8.971885462E0,-3.173255920E-2,-4.889128804E-1,-9.380688667E-1
8.990713795E0,-7.095670700E-2,-4.150905013E-1,-9.207987785E-1
9.009542129E0,-1.721463203E-1,-2.875952721E-1,-7.265934944E-1
9.028370462E0,-2.242107391E-1,-3.600779772E-1,-6.047167778E-1
9.047198743E0,-2.143325806E-1,-3.236191273E-1,-3.477926254E-1
9.066027077E0,-3.895349503E-1,-2.489126921E-1,-1.703867912E-1
9.084855410E0,-6.497077942E-1,-9.751307964E-2,-1.098814011E-1
9.103683743E0,-7.914733887E-1,-1.960015297E-2,3.124856949E-2
9.122512077E0,-8.175415993E-1,3.696143627E-2,3.202180862E-1
9.141340358E0,-1.103233814E0,2.419123650E-1,5.560355186E-1
9.160168691E0,-1.320703030E0,-2.544358969E-1,4.776349068E-1
9.178997025E0,-1.169073582E0,-4.344654083E-1,4.930429459E-1
9.197825358E0,-8.022985458E-1,-3.062562943E-1,4.694981575E-1
9.216653691E0,-6.546974182E-1,-1.139113903E-1,2.287330627E-1
9.235481973E0,-6.971588135E-1,1.098865271E-1,3.157281876E-2
9.254310306E0,-6.462097168E-1,8.838605881E-2,1.333527565E-1
9.273138639E0,-6.975054741E-1,-3.397309780E-2,1.678600311E-1
9.291966973E0,-9.110789299E-1,-3.363834620E-1,4.472923279E-2
9.310795254E0,-9.993715286E-1,-5.948741436E-1,-9.797000885E-2
9.329623587E0,-8.042798042E-1,-6.427053809E-1,-7.376146317E-2
9.348451920E0,-3.768992424E-1,-5.625696182E-1,4.390001297E-2
9.367280254E0,4.757499695E-2,-3.062281609E-1,1.151857376E-1
9.386108587E0,2.895069122E-1,7.067322731E-3,9.204101562E-2
9.404936868E0,3.941764832E-1,-6.134736538E-2,-1.052718163E-1
9.423765202E0,3.787012100E-1,-1.970840693E-1,-3.882288933E-1
9.442593535E0,4.850487709E-1,-1.273164749E-1,-5.268063545E-1
9.461421816E0,7.033700943E-1,9.394633770E-2,-6.709332466E-1
9.480250150E0,8.894677162E-1,1.956086159E-1,-8.562402725E-1
9.499078483E0,1.006291389E0,2.883942127E-1,-1.062615395E0
9.517906816E0,1.035024643E0,5.430420637E-1,-1.145491600E0
9.536735150E0,9.311394691E-1,7.461242676E-1,-1.238013268E0
9.555563431E0,7.050523758E-1,8.939900398E-1,-1.074975491E0
9.574391764E0,5.673007965E-1,8.668810129E-1,-7.345247269E-1
9.593220098E0,2.681956291E-1,8.678838015E-1,-3.102288246E-1
9.612048431E0,-2.531371117E-1,9.715110064E-1,3.602356911E-1
9.630876712E0,-5.445909500E-1,7.017672062E-1,7.576980591E-1
9.649705045E0,-6.708393097E-1,6.232045889E-1,9.215817451E-1
9.668533379E0,-6.979670525E-1,7.065418959E-1,9.169316292E-1
9.687361712E0,-4.799857140E-1,6.924182177E-1,6.382637024E-1
9.706189993E0,-2.086963654E-1,7.313473225E-1,3.195424080E-1
9.725018327E0,3.444862366E-2,7.726960182E-1,9.570503235E-2
9.743846660E0,3.122997284E-1,7.574284077E-1,1.034355164E-2
9.762674993E0,5.614948273E-1,8.983707428E-1,-5.956268311E-2
9.781503275E0,6.692509651E-1,1.143966913E0,-1.064763069E-1
9.800331608E0,7.959361076E-1,1.433439732E0,-1.184415817E-1
9.819159941E0,9.319391251E-1,1.627563477E0,-7.112026215E-2
9.837988223E0,1.109652996E0,1.753351927E0,2.045392990E-2
9.856816556E0,1.271931171E0,1.859028101E0,1.917624474E-1
9.875644889E0,1.385165930E0,1.956338644E0,2.797765732E-1
9.894473223E0,1.436921835E0,1.923463821E0,3.226690292E-1
9.913301504E0,1.472916126E0,1.775991678E0,3.131146431E-1
9.932129837E0,1.436900377E0,1.631812096E0,2.723507881E-1
9.950958170E0,1.444680929E0,1.532171726E0,2.027072906E-1
9.969786452E0,1.470010042E0,1.436317205E0,2.664794922E-1
9.988614785E0,1.520032406E0,1.252371788E0,2.793149948E-1
1.000744312E1,1.517614603E0,9.174489975E-1,9.375333786E-2
1.002627140E1,1.518736601E0,6.352939606E-1,-4.847908020E-2
1.004509973E1,1.559204102E0,6.041707993E-1,-5.814981461E-2
1.006392807E1,1.336911201E0,7.923321724E-1,1.667156219E-1
1.008275640E1,1.038486004E0,3.330478668E-1,4.218168259E-1
1.010158468E1,7.631692886E-1,-3.553349972E-1,6.422290802E-1
1.012041301E1,5.590300560E-1,-6.053140163E-1,8.770060539E-1
1.013924135E1,2.736210823E-1,-5.731799603E-1,1.087814331E0
1.015806963E1,-3.471183777E-2,-5.174705982E-1,1.061984062E0
1.017689796E1,-1.948976517E-1,-4.964826107E-1,9.789657593E-1
1.019572630E1,-2.153000832E-1,-4.356329441E-1,1.070058823E0
1.021455463E1,-1.952848434E-1,-3.730256557E-1,1.143292427E0
1.023338291E1,-1.633725166E-1,-4.654335976E-1,1.187627316E0
1.025221124E1,-1.682043076E-2,-7.179698944E-1,1.089837074E0
1.027103958E1,9.151506424E-2,-7.351851463E-1,8.631410599E-1
1.028986786E1,2.121953964E-1,-6.797566414E-1,6.709785461E-1
1.030869619E1,2.337856293E-1,-6.912133694E-1,5.632123947E-1
1.032752453E1,2.502470016E-1,-7.031447887E-1,6.031756401E-1
1.034635281E1,2.430610657E-1,-7.581982613E-1,7.039113045E-1
1.036518114E1,1.182622910E-1,-8.425869942E-1,7.538762093E-1
1.038400947E1,3.545761108E-3,-9.029140472E-1,7.504248619E-1
1.040283775E1,-1.025614738E-1,-8.642928600E-1,6.400341988E-1
1.042166609E1,-6.175947189E-2,-7.837135792E-1,5.473432541E-1
1.044049442E1,-5.813455582E-2,-6.531736851E-1,5.604057312E-1
1.045932270E1,-5.577611923E-2,-5.727519989E-1,6.047668457E-1
1.047815104E1,-6.823253632E-2,-5.396389961E-1,6.617412567E-1
1.049697937E1,-1.162419319E-1,-5.474298000E-1,6.660680771E-1
1.051580765E1,-1.434102058E-1,-6.221191883E-1,7.490525246E-1
1.053463598E1,-1.486029625E-1,-5.692033768E-1,9.301657677E-1
1.055346426E1,-1.766533852E-1,-6.389441490E-1,1.187400818E0
1.057229260E1,-2.211236954E-1,-5.639367104E-1,1.464434624E0
1.059112093E1,-3.591666222E-1,-5.084762573E-1,1.641860485E0
1.060994921E1,-5.395393372E-1,-5.562226772E-1,1.643067360E0
1.062877754E1,-6.114892960E-1,-6.297583580E-1,1.452779770E0
1.064760588E1,-5.568761826E-1,-6.547038555E-1,1.282096863E0
1.066643416E1,-3.205513954E-1,-8.065910339E-1,1.063487053E0
1.068526249E1,-1.155371666E-1,-9.561827183E-1,8.085775375E-1
1.070409078E1,3.153228760E-2,-1.001922369E0,4.101285934E-1
1.072291911E1,4.236125946E-2,-9.455692768E-1,-7.493400574E-2
1.074174744E1,7.838678360E-2,-8.857536316E-1,-4.530587196E-1
1.076057572E1,1.434946060E-1,-8.909578323E-1,-7.283487320E-1
1.077940406E1,2.097983360E-1,-7.215447426E-1,-7.034144402E-1
1.079823234E1,2.156410217E-1,-6.486288309E-1,-6.041512489E-1
1.081706067E1,1.417922974E-1,-6.761970520E-1,-4.918193817E-1
1.083588900E1,2.355957031E-2,-6.896634102E-1,-3.296613693E-1
1.085471729E1,-1.015443802E-1,-5.184112787E-1,-3.900322914E-1
1.087354562E1,-1.047630310E-1,-4.466027021E-1,-2.637763023E-1
1.089237395E1,1.941633224E-2,-3.202954531E-1,-1.318750381E-1
1.091120223E1,1.620540619E-1,-2.097269297E-1,-8.548450470E-2
1.093003057E1,2.369103432E-1,1.148808002E-1,-8.247756958E-2
1.094885890E1,2.799167633E-1,3.881243467E-1,-2.451176643E-1
1.096768718E1,4.632716179E-1,5.131834745E-1,-5.392975807E-1
1.098651551E1,7.009153366E-1,5.972070694E-1,-9.008326530E-1
1.100534380E1,8.553700447E-1,8.269641399E-1,-1.172782421E0
1.102417213E1,9.978671074E-1,1.041275144E0,-1.338347435E0
1.104300041E1,9.919207096E-1,1.084571958E0,-1.298158646E0
1.106182874E1,8.995904922E-1,1.077747941E0,-1.015060902E0
1.108065702E1,6.485891342E-1,9.375765324E-1,-7.348375320E-1
1.109948536E1,2.228722572E-1,8.914883137E-1,-6.484742165E-1
1.111831369E1,-1.234488487E-1,7.524566650E-1,-5.680527687E-1
1.113714197E1,-2.533006668E-1,6.505312920E-1,-5.840511322E-1
1.115597031E1,-1.762943268E-1,5.161745548E-1,-6.290655136E-1
1.117479859E1,-9.634447098E-2,6.207625866E-1,-6.314330101E-1
1.119362692E1,4.408168793E-2,5.047597885E-1,-8.566222191E-1
1.121245520E1,1.377010345E-1,4.429523945E-1,-1.155897141E0
1.123128354E1,2.649512291E-1,4.716920853E-1,-1.328801155E0
1.125011187E1,4.460787773E-1,5.549702644E-1,-1.499575615E0
1.126894015E1,6.454033852E-1,5.642454624E-1,-1.578883648E0
1.128776848E1,7.181859016E-1,5.144615173E-1,-1.750470638E0
1.130659676E1,6.123423576E-1,4.385170937E-1,-1.824057579E0
1.132542510E1,5.521693230E-1,2.597093582E-1,-1.853878975E0
1.134425338E1,5.024037361E-1,1.889417171E-1,-1.553824902E0
1.136308171E1,4.963197708E-1,2.929110527E-1,-1.115008831E0
1.138190999E1,3.750672340E-1,4.906322956E-1,-6.534299850E-1
1.140073833E1,2.324929237E-1,4.607658386E-1,-1.593093872E-1
1.141956661E1,2.569532394E-2,2.788872719E-1,4.206743240E-1
1.143839494E1,-1.224212646E-1,1.492252350E-1,1.023684502E0
1.145722328E1,-4.335751534E-1,3.767275810E-2,1.528042793E0
1.147605156E1,-7.551798820E-1,-1.033351421E-1,1.792410851E0
1.149487989E1,-1.078063011E0,-1.833412647E-1,2.010767460E0
1.151370817E1,-1.255861759E0,-2.855947018E-1,1.828678608E0
1.153253650E1,-1.330139160E0,-3.116044998E-1,1.593802452E0
1.155136478E1,-1.252468586E0,-2.897820473E-1,1.564420223E0
1.157019312E1,-1.092776775E0,-3.662645817E-1,1.529503822E0
1.158902140E1,-8.261632919E-1,-5.798575878E-1,1.130020618E0
1.160784973E1,-7.362270355E-1,-4.155197144E-1,1.048247337E0
1.162667801E1,-4.514908791E-1,-3.902544975E-1,1.178121090E0
1.164550635E1,-4.401063919E-2,-5.609371662E-1,1.139256477E0
1.166433463E1,7.094383240E-2,-4.752035141E-1,1.175993443E0
1.168316296E1,1.220579147E-1,-3.908610344E-1,1.257770538E0
1.170199124E1,9.793996811E-2,-2.999312878E-1,1.480966568E0
1.172081958E1,7.511663437E-2,-3.222866058E-1,1.715614319E0
1.173964791E1,-9.373903275E-2,-2.793798447E-1,1.909157753E0
1.175847619E1,-2.705054283E-1,-2.640130520E-1,2.227193832E0
1.177730447E1,-3.173618317E-1,-3.637337685E-1,2.345990658E0
1.179613281E1,-3.270568848E-1,-3.924262524E-1,2.411573887E0
1.181496109E1,-2.857856750E-1,-2.934000492E-1,2.431871414E0
1.183378942E1,-1.653771400E-1,-1.653616428E-1,2.418463230E0
1.185261770E1,3.842115402E-2,-1.805422306E-1,2.298181057E0
1.187144604E1,1.398830414E-1,-1.455931664E-1,2.027660370E0
1.189027432E1,1.387996674E-1,-4.013848305E-2,1.759180546E0
1.190910265E1,1.712260246E-1,5.977582932E-2,1.328412056E0
1.192793093E1,2.948794365E-1,-2.217984200E-2,1.000492096E0
1.194675926E1,5.753092766E-1,-1.513938904E-1,6.285991669E-1
1.196558754E1,8.011596203E-1,-6.608605385E-2,3.425159454E-1
1.198441583E1,8.911256790E-1,1.065254211E-3,9.520530701E-3
1.200324416E1,9.820277691E-1,-1.244971752E-1,-4.101161957E-1
1.202207244E1,1.116008043E0,-2.510170937E-1,-7.900652885E-1
1.204090078E1,1.201881886E0,-2.373576164E-1,-1.055246353E0
1.205972906E1,1.436418295E0,-2.261183262E-1,-1.175710678E0
1.207855739E1,1.560132265E0,-1.111512184E-1,-1.221290112E0
1.209738567E1,1.585903168E0,-5.740261078E-2,-1.243689060E0
1.211621395E1,1.596318722E0,2.096104622E-2,-1.200387478E0
1.213504228E1,1.602803707E0,9.971809387E-2,-1.152700901E0
1.215387057E1,1.530610800E0,2.208697796E-1,-1.084305286E0
1.217269890E1,1.427480221E0,3.281320333E-1,-1.013711452E0
1.219152718E1,1.350905180E0,3.076083660E-1,-8.496241570E-1
1.221035551E1,1.440710306E0,3.744900227E-1,-5.722494125E-1
1.222918380E1,1.617002487E0,3.566204309E-1,-3.705530167E-1
1.224801208E1,1.744644880E0,4.310451746E-1,-3.600063324E-1
1.226684041E1,1.739427328E0,4.797660112E-1,-5.717964172E-1
1.228566869E1,1.748414159E0,5.145492554E-1,-9.371719360E-1
1.230449703E1,1.689615488E0,8.083171844E-1,-1.241313934E0
1.232332531E1,1.800535679E0,1.166629553E0,-1.362563133E0
1.234215364E1,2.016427517E0,1.581270218E0,-1.224109173E0
1.236098192E1,2.137663841E0,1.643753767E0,-1.072077751E0
1.237981020E1,2.072773695E0,1.435105324E0,-8.846621513E-1
1.239863854E1,1.885910749E0,1.325985551E0,-5.522127151E-1
1.241746682E1,1.626507759E0,1.388813019E0,-8.501434326E-2
1.243629510E1,1.399199009E0,1.109422684E0,2.181510925E-1
1.245512343E1,1.131588697E0,8.743919134E-1,5.325593948E-1
1.247395171E1,7.287585735E-1,9.508111477E-1,5.946550369E-1
1.249278004E1,3.710772991E-1,8.193943501E-1,5.275421143E-1
1.251160833E1,3.201453686E-1,7.103180885E-1,6.404151917E-1
1.253043666E1,4.296000004E-1,5.609164238E-1,8.405189514E-1
1.254926494E1,3.570897579E-1,4.542424679E-1,8.768291473E-1
1.256809322E1,2.516407967E-1,2.299771309E-1,8.214006424E-1
1.258692156E1,2.914547920E-1,1.293222904E-1,6.335506439E-1
1.260574984E1,3.556487560E-1,2.989549637E-1,4.886503220E-1
1.262457817E1,3.875935078E-1,4.560277462E-1,2.990074158E-1
1.264340645E1,4.880373478E-1,5.367546082E-1,1.785650253E-1
1.266223473E1,4.335989952E-1,6.358168125E-1,2.204990387E-1
1.268106307E1,3.027071953E-1,6.007392406E-1,2.017726898E-1
1.269989135E1,5.051279068E-2,5.726726055E-1,2.206344604E-1
1.271871968E1,-2.707309723E-1,5.628328323E-1,2.355365753E-1
1.273754796E1,-5.733947754E-1,2.283277512E-1,-3.493213654E-2
1.275637624E1,-7.090897560E-1,-5.552911758E-2,-3.797216415E-1
1.277520458E1,-7.166118622E-1,-8.506107330E-2,-4.735784531E-1
1.279403286E1,-9.915890694E-1,4.557011127E-1,-3.175649643E-1
1.281286119E1,-1.582146168E0,-2.004785538E-1,1.646232605E-2
1.283168947E1,-2.349337101E0,-9.952195883E-1,3.612098694E-1
1.285051775E1,-2.936947823E0,-1.731489539E0,4.301509857E-1
1.286934609E1,-3.242850780E0,-2.109618187E0,3.439807892E-2
1.288817437E1,-3.239606380E0,-2.171912670E0,-9.575629234E-1
1.290700265E1,-2.705269098E0,-1.887567520E0,-2.039979458E0
1.292583098E1,-1.851906538E0,-1.435988545E0,-2.536654472E0
1.294465926E1,-9.330954552E-1,-9.722590446E-1,-2.624023914E0
1.296348760E1,-5.437293053E-1,-6.693629026E-1,-2.489329815E0
1.298231588E1,-5.100085735E-1,-7.262473106E-1,-2.044765949E0
1.300114416E1,-6.519949436E-1,-1.063297749E0,-1.337269783E0
1.301997249E1,-9.387722015E-1,-1.161005497E0,-7.139210701E-1
1.303880078E1,-1.507014990E0,-1.072611690E0,-2.020101547E-1
1.305762911E1,-1.748825550E0,-1.238044024E0,2.054367065E-1
1.307645739E1,-1.754992008E0,-1.314944744E0,6.099395752E-1
1.309528567E1,-1.692679405E0,-1.098433495E0,9.072046280E-1
1.311411395E1,-1.723433495E0,-1.001301169E0,1.184374809E0
1.313294228E1,-1.694447994E0,-7.305829525E-1,1.567416191E0
1.315177057E1,-1.802803040E0,-2.543823719E-1,2.296546936E0
1.317059890E1,-1.856277943E0,-1.585612297E-1,3.007282257E0
1.318942718E1,-1.769209385E0,-7.294690609E-1,3.275749207E0
1.320825546E1,-1.341568947E0,-9.876651764E-1,3.104616165E0
1.322708380E1,-5.840630531E-1,-5.937931538E-1,2.912931442E0
1.324591208E1,1.868035793E-1,-1.913821697E-1,2.488183022E0
1.326474036E1,7.885279655E-1,-1.789405346E-1,1.763122559E0
1.328356864E1,1.272376537E0,-3.404784203E-2,1.352161407E0
1.330239697E1,1.565138102E0,3.493924141E-1,1.354622841E0
1.332122525E1,1.430648327E0,8.095431328E-1,1.450026512E0
1.334005354E1,8.395609856E-1,9.858136177E-1,1.491084099E0
1.335888187E1,6.488084793E-2,9.494066238E-1,1.453953743E0
1.337771015E1,-5.682234764E-1,1.067422390E0,1.221811295E0
1.339653843E1,-8.294954300E-1,1.092334747E0,7.282991409E-1
1.341536676E1,-5.884447098E-1,1.127844691E0,1.351909637E-1
1.343419505E1,-1.931443214E-1,1.292011499E0,-2.949686050E-1
1.345302333E1,1.737127304E-1,1.314136744E0,-6.325397491E-1
1.347185161E1,3.928797245E-1,1.162441969E0,-9.278311729E-1
1.349067994E1,4.770529270E-1,8.564311266E-1,-1.322829723E0
1.350950822E1,6.700775623E-1,7.780271769E-1,-1.618931293E0
1.352833650E1,9.353106022E-1,1.096181750E0,-1.974565506E0
1.354716484E1,1.036463976E0,1.441758871E0,-2.220488071E0
1.356599312E1,1.125003815E0,1.754548550E0,-2.395555973E0
1.358482140E1,1.199910641E0,2.014374971E0,-2.416287422E0
1.360364968E1,1.027992487E0,2.283804178E0,-2.256243229E0
1.362247801E1,7.979972363E-1,2.074041605E0,-2.133009434E0
1.364130630E1,4.869987965E-1,1.665315986E0,-2.032379150E0
1.366013458E1,3.137049675E-1,1.300718904E0,-2.014962673E0
1.367896286E1,3.535435200E-1,1.156594872E0,-1.933692932E0
1.369779119E1,4.866323471E-1,1.079323649E0,-1.735132694E0
1.371661947E1,7.482655048E-1,1.001873374E0,-1.698992729E0
1.373544775E1,7.833116055E-1,1.273723125E0,-1.663364887E0
1.375427604E1,8.046445847E-1,1.688221931E0,-1.729576111E0
1.377310437E1,8.841106892E-1,1.728440642E0,-1.697099209E0
1.379193265E1,1.009579897E0,1.605259299E0,-1.400580406E0
1.381076093E1,8.313455582E-1,1.858523488E0,-1.000420094E0
1.382958926E1,2.142014503E-1,2.083269119E0,-3.350763321E-1
1.384841754E1,-2.764124870E-1,1.676488996E0,6.331319809E-1
1.386724583E1,-8.929939270E-1,1.474000096E0,1.775306702E0
1.388607411E1,-1.981586933E0,1.036190033E0,2.138782501E0
1.390490244E1,-3.013082027E0,-1.696465015E-1,1.697365761E0
1.392373072E1,-3.034571171E0,-9.676162004E-1,1.114775658E0
1.394255900E1,-2.212539673E0,-6.375093460E-1,5.338973999E-1
1.396138728E1,-1.356482506E0,1.706857681E-1,-8.019733429E-2
1.398021557E1,-5.368680954E-1,6.464366913E-1,-6.515688896E-1
1.399904390E1,5.179381371E-2,7.191069126E-1,-9.781994820E-1
1.401787218E1,5.118393898E-1,4.611487389E-1,-1.150877476E0
1.403670046E1,6.779105663E-1,3.476059437E-1,-9.325799942E-1
1.405552874E1,6.817831993E-1,1.172096729E-1,-7.521014214E-1
1.407435708E1,4.189026356E-1,3.087449074E-2,-5.831909180E-1
1.409318536E1,4.950118065E-2,-6.584596634E-2,-6.871848106E-1
1.411201364E1,-5.158197880E-1,-7.968664169E-3,-6.805191040E-1
1.413084192E1,-5.913362503E-1,-4.673845768E-1,-7.872815132E-1
1.414967020E1,-6.360650063E-1,-2.540006638E-1,-6.487817764E-1
1.416849848E1,-7.242076397E-1,-7.236480713E-2,-6.705884933E-1
1.418732682E1,-8.491523266E-1,-8.374881744E-2,-6.258039474E-1
1.420615510E1,-8.725504875E-1,-2.242052555E-1,-6.360244751E-1
1.422498338E1,-9.525787830E-1,-1.608052254E-1,-4.102077484E-1
1.424381166E1,-9.460048676E-1,-8.330321312E-2,-1.838836670E-1
1.426263994E1,-1.080604553E0,-1.156294346E-1,-8.846282959E-3
1.428146828E1,-1.125610828E0,-2.069993019E-1,5.734920502E-2
1.430029656E1,-1.221173525E0,-2.121956348E-1,7.745265961E-2
1.431912484E1,-1.274100304E0,-2.575595379E-1,2.265357971E-2
1.433795312E1,-1.343353033E0,-3.323328495E-1,-7.051277161E-2
1.435678140E1,-1.358061075E0,-4.137289524E-1,-1.931076050E-1
1.437560973E1,-1.417065859E0,-4.675364494E-1,-3.543386459E-1
1.439443801E1,-1.459768295E0,-4.376776218E-1,-3.616456985E-1
1.441326630E1,-1.622332096E0,-2.019042969E-1,-1.762905121E-1
1.443209458E1,-1.958076239E0,-2.968902588E-1,1.603889465E-2
1.445092286E1,-2.271488190E0,-4.180898666E-1,1.511659622E-1
1.446975114E1,-2.526945829E0,-6.223077774E-1,2.321043015E-1
1.448857942E1,-2.549126863E0,-6.966984272E-1,3.686761856E-1
1.450740775E1,-2.389456034E0,-6.501014233E-1,4.844141006E-1
1.452623604E1,-2.203320980E0,-6.356160641E-1,5.100030899E-1
1.454506432E1,-2.041820526E0,-6.118209362E-1,3.580102921E-1
1.456389260E1,-1.948931932E0,-6.400089264E-1,1.001386642E-1
1.458272088E1,-1.794257641E0,-6.678555012E-1,-1.897497177E-1
1.460154916E1,-1.568344116E0,-8.283429146E-1,-3.931970596E-1
1.462037744E1,-1.287335396E0,-1.175223351E0,-5.889077187E-1
1.463920572E1,-9.268918037E-1,-1.357505083E0,-9.452762604E-1
1.465803400E1,-7.553930283E-1,-1.177299976E0,-1.223669529E0
1.467686228E1,-7.109813690E-1,-9.533716440E-1,-1.412623405E0
1.469569062E1,-4.411597252E-1,-8.426783085E-1,-1.392137051E0
1.471451890E1,1.140356064E-2,-8.090173006E-1,-1.285994530E0
1.473334718E1,3.579616547E-1,-2.041065693E-1,-9.337978363E-1
1.475217546E1,5.352592468E-1,7.673108578E-1,-4.447779655E-1
1.477100374E1,6.843404770E-1,9.987432957E-1,-4.069275856E-1
1.478983202E1,9.300746918E-1,7.886152267E-1,-7.740750313E-1
1.480866031E1,1.241483212E0,6.462664604E-1,-1.168992043E0
1.482748859E1,1.731072426E0,1.089449167E0,-1.944320202E0
1.484631687E1,1.831822395E0,2.207497120E0,-2.140332699E0
1.486514515E1,1.890253067E0,3.332480669E0,-1.537805080E0
1.488397343E1,2.034443378E0,3.805788755E0,-6.994318962E-1
1.490280171E1,2.265799999E0,4.404684067E0,2.566924095E-1
1.492162999E1,2.236933708E0,4.507174492E0,9.054384232E-1
1.494045828E1,2.344262123E0,3.829563141E0,1.441791534E0
1.495928656E1,2.702275753E0,3.541015148E0,2.074093819E0
1.497811484E1,2.817855835E0,3.389562130E0,2.483999729E0
1.499694312E1,2.715054512E0,3.067310333E0,2.823923111E0
1.501577140E1,2.772605896E0,3.098970413E0,2.889629364E0
1.503459968E1,2.984954357E0,2.924411058E0,2.815003395E0
1.505342796E1,2.535644054E0,3.155048132E0,2.089242458E0
1.507225624E1,1.468777657E0,2.772264957E0,1.362523079E0
1.509108453E1,8.564233780E-1,1.636616230E0,4.376120567E-1
1.510991281E1,4.923777580E-1,7.985115051E-1,-2.521967888E-1
1.512874109E1,-3.100776672E-2,7.693114281E-1,-5.483140945E-1
1.514756937E1,-4.806971550E-1,1.328578949E0,-6.942172050E-1
1.516639765E1,-5.545969009E-1,5.574893951E-1,-5.025248528E-1
1.518522593E1,-1.596879959E-1,-8.513357639E-1,-2.040562630E-1
1.520405421E1,2.138948441E-2,-1.866102695E0,3.585085869E-1
1.522288249E1,-5.563440323E-1,-2.282185793E0,1.177410603E0
1.524171078E1,-1.582524300E0,-2.353143930E0,1.319746494E0
1.526053906E1,-2.463628292E0,-2.315330744E0,1.094653606E0
1.527936734E1,-2.806746006E0,-2.214537621E0,6.571221352E-1
1.529819562E1,-2.623999596E0,-2.048254251E0,6.577281952E-1
1.531702390E1,-2.073863029E0,-1.759813070E0,8.845133781E-1
1.533585218E1,-1.543735981E0,-1.373670101E0,1.125798225E0
1.535468046E1,-1.245341778E0,-1.210267067E0,1.277920723E0
1.537350874E1,-9.170117378E-1,-1.114011288E0,1.116423607E0
1.539233703E1,-5.067958832E-1,-1.139302254E0,1.087573051E0
1.541116531E1,-2.090878487E-1,-9.318020344E-1,1.350163460E0
1.542999359E1,-1.536278725E-1,-7.632298470E-1,1.578183651E0
1.544882182E1,-1.002693176E-1,-9.424378872E-1,1.822209835E0
1.546765010E1,-1.603269577E-2,-1.057082176E0,1.596790791E0
1.548647838E1,-1.359415054E-1,-9.874382019E-1,1.615802288E0
1.550530666E1,-6.709480286E-2,-9.250218868E-1,1.542654991E0
1.552413494E1,-6.622457504E-2,-8.542244434E-1,1.536877632E0
1.554296322E1,-2.131271362E-2,-8.011085987E-1,1.511931419E0
1.556179150E1,6.588649750E-2,-6.104507446E-1,1.586052418E0
1.558061979E1,2.114949226E-1,-5.684096813E-1,1.677036762E0
1.559944807E1,3.028125763E-1,-6.688120365E-1,1.717770100E0
1.561827635E1,3.219041824E-1,-7.423012257E-1,1.678958416E0
1.563710463E1,3.017029762E-1,-8.756084442E-1,1.698874950E0
1.565593291E1,2.233490944E-1,-1.163049698E0,1.711489677E0
1.567476119E1,2.435541153E-2,-1.345113039E0,1.630003452E0
1.569358947E1,-2.518053055E-1,-1.302605391E0,1.429901123E0
1.571241770E1,-6.383709908E-1,-5.861976147E-1,1.082093716E0
1.573124598E1,-6.973991394E-1,-7.479522228E-1,1.176080704E0
1.575007426E1,-5.947031975E-1,-1.066012621E0,9.202971458E-1
1.576890255E1,-9.477458000E-1,-4.555389881E-1,1.049715042E0
1.578773083E1,-1.364469051E0,-9.063825607E-1,4.016475677E-1
1.580655911E1,-1.462141991E0,-1.391262293E0,-1.885213852E-1
1.582538739E1,-1.005741596E0,-1.613672018E0,-3.149614334E-1
1.584421567E1,-3.774218559E-1,-1.872107983E0,-5.767726898E-1
1.586304395E1,5.159997940E-2,-1.913188219E0,-9.750990868E-1
1.588187218E1,1.700143814E-1,-1.552394867E0,-1.236357689E0
1.590070051E1,1.936969757E-1,-1.098016739E0,-1.675983429E0
1.591952874E1,2.472920418E-1,-7.606711388E-1,-2.148584843E0
1.593835702E1,3.141498566E-1,-4.244039059E-1,-2.386639595E0
1.595718531E1,4.008708000E-1,-1.754243374E-1,-2.393723488E0
1.597601359E1,5.303320885E-1,-8.159732819E-2,-2.152314186E0
1.599484187E1,7.557983398E-1,-1.728603840E-1,-1.991880417E0
1.601367015E1,6.546106339E-1,-1.467401981E-1,-1.724301815E0
1.603249843E1,4.538803101E-1,-3.611814976E-1,-1.550673962E0
1.605132666E1,1.280012131E-1,-4.333829880E-1,-1.591371536E0
1.607015494E1,-1.943035126E-1,-4.113347530E-1,-1.539848328E0
1.608898322E1,-2.778058052E-1,-4.795217514E-1,-1.447425365E0
1.610781150E1,-4.367318153E-1,-6.088731289E-1,-1.160460472E0
1.612663979E1,-7.477259636E-1,-5.199069977E-1,-3.572773933E-1
1.614546807E1,-8.327441216E-1,-7.460384369E-1,3.420662880E-1
1.616429635E1,-1.058856964E0,-1.053748608E0,7.413797379E-1
1.618312458E1,-1.350293159E0,-1.298193455E0,1.162803173E0
1.620195286E1,-1.298704147E0,-1.391510487E0,1.359737873E0
1.622078114E1,-1.210104942E0,-1.283524752E0,1.255853653E0
1.623960942E1,-1.058457851E0,-9.320867062E-1,1.160734177E0
1.625843770E1,-7.326364517E-1,-6.740052700E-1,7.854452133E-1
1.627726593E1,-3.414835930E-1,-4.604032040E-1,3.689818382E-1
1.629609421E1,1.577706337E-1,-3.219871521E-1,7.784461975E-2
1.631492249E1,6.183328629E-1,-3.167107105E-1,-2.440690994E-2
1.633375078E1,1.062829018E0,-3.820781708E-1,-1.079840660E-1
1.635257906E1,1.254512787E0,-6.242549419E-1,-1.714339256E-1
1.637140734E1,1.390373230E0,-8.064310551E-1,-2.715849876E-1
1.639023557E1,1.343325138E0,-6.417582035E-1,-2.897887230E-1
1.640906385E1,1.236011982E0,-3.533928394E-1,-3.199272156E-1
1.642789213E1,1.124210835E0,-3.704500198E-2,-2.045283318E-1
1.644672041E1,1.336824417E0,1.437563896E-1,4.903793335E-2
1.646554869E1,1.745676994E0,4.053802490E-1,4.727978706E-1
1.648437692E1,1.762576580E0,8.439397812E-1,6.568169594E-1
1.650320520E1,1.508916378E0,1.870134354E0,7.820749283E-1
1.652203348E1,1.498476028E0,2.586122990E0,1.077449799E0
1.654086176E1,1.598103046E0,2.748843670E0,9.294171333E-1
1.655968999E1,1.269810200E0,3.253332138E0,1.107034683E0
1.657851828E1,9.883198738E-1,2.527684212E0,8.592190742E-1
1.659734656E1,1.403948784E0,1.418199062E0,2.536878586E-1
1.661617484E1,2.267204285E0,1.458442688E0,-2.485847473E-1
1.663499661E1,3.318851948E0,2.633969784E0,-1.031928062E-1
1.665410130E1,4.364688873E0,3.119363308E0,3.060388565E-1
1.667330583E1,4.539084435E0,3.270129681E0,1.029903889E0
1.669251036E1,3.728208065E0,3.747714996E0,2.073664665E0
1.671171489E1,2.653708935E0,3.673341751E0,2.659098148E0
1.673091942E1,1.650182009E0,2.874114990E0,2.792305946E0
1.675011057E1,-1.950864792E-1,2.516595840E0,2.480026245E0
1.676915452E1,-3.369580746E0,3.632170200E0,1.919943810E0
1.678798281E1,-6.666377068E0,4.502709866E0,1.205761433E0
1.680679796E1,-8.444816589E0,3.270298958E0,3.736162186E-2
1.682563937E1,-8.439275742E0,1.244195461E0,-6.594352722E-1
1.684446760E1,-7.058851719E0,-6.720242500E-1,-6.205158234E-1
1.686329588E1,-5.973028660E0,-9.168906212E-1,-5.656113625E-1
1.688212416E1,-4.928268433E0,-4.387073517E-1,-6.247162819E-1
1.690095244E1,-4.038435936E0,-7.106208801E-2,-4.639978409E-1
1.691978072E1,-3.022529364E0,-1.805186272E-1,-3.109760284E-1
1.693860900E1,-2.254342556E0,-4.914150238E-1,-5.168905258E-1
1.695743723E1,-1.597733974E0,-4.845318794E-1,-1.004124641E0
1.697626551E1,-1.257301092E0,-6.775166988E-1,-8.006510735E-1
1.699509380E1,-5.943241119E-1,-9.163131714E-1,-2.464957237E-1
1.701392208E1,-4.594321251E-1,-1.045487881E0,-3.419365883E-1
1.703275036E1,-4.654569626E-1,-1.068066359E0,-5.262579918E-1
1.705157859E1,-3.446507454E-1,-9.507651329E-1,-4.002394676E-1
1.707040687E1,2.446293831E-1,-3.603672981E-1,-3.472237587E-1
1.708923515E1,4.251685143E-1,1.239398241E0,-8.946561813E-2
1.710806343E1,4.178967476E-1,6.245665550E-1,-5.411944389E-1
1.712689171E1,1.037944555E0,-1.269459724E-2,-9.005484581E-1
1.714571994E1,1.660194635E0,6.963486671E-1,-1.088856220E0
1.716454822E1,1.927070141E0,1.852802277E0,-1.085853100E0
1.718337650E1,2.187046289E0,2.362982512E0,-1.361023903E0
1.720220479E1,2.439755201E0,2.495637894E0,-1.646711826E0
1.722103307E1,2.625858068E0,2.568348646E0,-1.802602291E0
1.723986130E1,2.707066536E0,2.324556351E0,-1.837711811E0
1.725868958E1,2.791867733E0,2.113644123E0,-1.836423874E0
1.727751786E1,2.672972679E0,1.942666054E0,-1.755088329E0
1.729634614E1,2.421186924E0,1.629578829E0,-1.745985031E0
1.731517437E1,2.032124519E0,1.283208132E0,-1.679141045E0
1.733400265E1,1.385025978E0,1.547126293E0,-1.564902782E0
1.735283093E1,7.237238884E-1,1.454810143E0,-1.566429138E0
1.737165916E1,4.265327454E-1,1.046995640E0,-1.707185745E0
1.739048744E1,2.284550667E-1,9.147191048E-1,-1.761731148E0
1.740931572E1,1.663279533E-1,1.079029083E0,-1.804002285E0
1.742814400E1,1.843595505E-1,1.098160267E0,-1.638187408E0
1.744697228E1,3.177213669E-1,9.378602505E-1,-1.564509869E0
1.746580051E1,5.163972378E-1,9.445509911E-1,-1.502948284E0
1.748462880E1,6.134798527E-1,1.023595333E0,-9.358077049E-1
1.750345708E1,9.447579384E-1,8.508486748E-1,-3.333954811E-1
1.752228531E1,7.692172527E-1,9.481017590E-1,-2.634811401E-2
1.754111359E1,1.961636543E-1,1.262157440E0,2.079467773E-1
1.755994187E1,-1.967906952E-3,1.054000616E0,5.299377441E-1
1.757877015E1,-6.324672699E-2,1.078923941E0,8.882732391E-1
1.759759838E1,-7.422509193E-1,1.602625608E0,1.088360786E0
1.761642666E1,-1.320627213E0,8.271453381E-1,1.094972610E0
1.763525494E1,-1.216341019E0,-1.976656914E-1,1.011373520E0
1.765408322E1,-1.010615826E0,-2.201597691E-1,7.695789337E-1
1.767291145E1,-8.444080353E-1,1.093442440E-1,2.599210739E-1
1.769173973E1,-4.946637154E-1,4.030165672E-1,-3.135342598E-1
1.771056801E1,3.764939308E-2,6.090312004E-1,-6.276087761E-1
1.772939630E1,5.505721569E-1,7.910270691E-1,-6.259336472E-1
1.774822452E1,8.242814541E-1,7.665543556E-1,-5.523633957E-1
1.776705281E1,7.399413586E-1,5.875747204E-1,-5.600991249E-1
1.778588109E1,6.595983505E-1,4.107425213E-1,-3.660798073E-1
1.780470937E1,7.066931725E-1,-1.487731934E-4,-1.836876869E-1
1.782353760E1,6.640739441E-1,-2.982425690E-1,-1.395034790E-1
1.784236588E1,5.964286327E-1,-4.051117897E-1,-2.096624374E-1
1.786119416E1,5.077672005E-1,-3.307123184E-1,-2.311544418E-1
1.788002239E1,4.467766285E-1,-4.417691231E-1,-4.383835793E-1
1.789885067E1,2.931907177E-1,-3.130955696E-1,-3.467535973E-1
1.791767895E1,2.310104370E-1,-3.833484650E-1,-1.665430069E-1
1.793650718E1,2.366347313E-1,-6.123037338E-1,-1.655874252E-1
1.795533546E1,3.512256145E-1,-5.964913368E-1,-2.796554565E-2
1.797416374E1,4.879817963E-1,-6.747293472E-1,-1.049041748E-3
1.799299202E1,5.021452904E-1,-6.976191998E-1,-2.145767212E-3
1.801182025E1,6.004652977E-1,-7.744598389E-1,2.588272095E-2
1.803064854E1,5.432393551E-1,-7.933557034E-1,3.888130188E-3
1.804947682E1,3.228716850E-1,-8.742628098E-1,1.311140060E-1
1.806830505E1,2.472281456E-2,-1.125326157E0,2.137556076E-1
1.808713333E1,-2.655773163E-1,-1.206420183E0,3.301677704E-1
1.810596161E1,-5.538609028E-1,-1.304689884E0,4.661417007E-1
1.812478984E1,-8.597807884E-1,-1.276901007E0,6.235847473E-1
1.814361812E1,-1.110564232E0,-1.196319818E0,6.415405273E-1
1.816244640E1,-1.408994675E0,-1.101472855E0,5.485067368E-1
1.818127463E1,-1.627986193E0,-1.155766964E0,4.688959122E-1
1.820010291E1,-1.739636898E0,-1.213492870E0,5.891494751E-1
1.821893119E1,-1.666156769E0,-1.368183136E0,7.971458435E-1
1.823775942E1,-1.764227629E0,-1.303699970E0,9.848346710E-1
1.825658770E1,-2.078068018E0,-1.220873594E0,1.148193359E0
1.827541598E1,-2.217896223E0,-1.188642263E0,1.400639534E0
1.829424421E1,-2.274071217E0,-1.193425655E0,1.669420242E0
1.831307249E1,-2.268577576E0,-1.458137274E0,1.879940987E0
1.833190078E1,-2.354816198E0,-1.573773146E0,1.909517288E0
1.835072900E1,-2.316442728E0,-1.633024931E0,1.801927567E0
1.836955729E1,-2.208653688E0,-1.467961073E0,1.608656883E0
1.838838557E1,-2.026151180E0,-9.625549316E-1,1.395526886E0
1.840721380E1,-1.775294781E0,-5.308449268E-1,1.185644150E0
1.842604208E1,-1.515580416E0,-7.912611961E-2,9.926147461E-1
1.844487036E1,-1.244818687E0,2.371671200E-1,8.052110672E-1
1.846369859E1,-8.044140339E-1,5.210456848E-1,6.982545853E-1
1.848252687E1,-3.377070427E-1,7.890281677E-1,6.622476578E-1
1.850135510E1,1.313207150E-1,1.170464754E0,7.106885910E-1
1.852018338E1,4.873943329E-1,1.552441597E0,7.510318756E-1
1.853901166E1,5.337462425E-1,2.116283894E0,8.664827347E-1
1.855783989E1,5.100548267E-1,2.072439194E0,9.125022888E-1
1.857666817E1,5.290532112E-1,1.545474768E0,6.590261459E-1
1.859549645E1,5.331084728E-1,1.228953362E0,1.959466934E-1
1.861432468E1,7.380709648E-1,1.287395954E0,-2.473201752E-1
1.863315296E1,9.130971432E-1,1.641379833E0,-5.665574074E-1
1.865198119E1,1.055588007E0,1.818936586E0,-8.405475616E-1
1.867080947E1,1.128053904E0,1.866468668E0,-1.103901386E0
1.868963775E1,1.207250595E0,1.939424038E0,-1.274364471E0
1.870846598E1,1.360892057E0,1.997975349E0,-1.365230083E0
1.872729426E1,1.526259661E0,2.028268576E0,-1.355670929E0
1.874612249E1,1.678284883E0,1.893566608E0,-1.308566570E0
1.876495078E1,1.847850084E0,1.742649555E0,-1.283332825E0
1.878377906E1,1.975675821E0,1.630312204E0,-1.257879257E0
1.880260728E1,2.078920364E0,1.619997025E0,-1.279748917E0
1.882143557E1,2.008650064E0,1.711697817E0,-1.300035954E0
1.884026380E1,1.788113832E0,1.538971424E0,-1.325021267E0
1.885909208E1,1.533821583E0,1.327442169E0,-1.226121426E0
1.887792036E1,1.220029116E0,9.271523952E-1,-1.103527069E0
1.889674859E1,7.433760166E-1,5.838053226E-1,-1.028426170E0
1.891557687E1,1.505017281E-1,5.624980927E-1,-9.060821533E-1
1.893440510E1,-3.350691795E-1,3.200109005E-1,-9.027013779E-1
1.895323338E1,-5.048375130E-1,7.502031326E-2,-8.600382805E-1
1.897206161E1,-5.380039215E-1,6.404161453E-2,-7.982287407E-1
1.899088989E1,-6.273050308E-1,1.878671646E-1,-8.601264954E-1
1.900971812E1,-6.579523087E-1,1.239891052E-1,-8.830313683E-1
1.902854640E1,-5.253596306E-1,2.678632736E-3,-1.037178040E0
1.904737468E1,-4.318456650E-1,1.922242641E-1,-1.088312149E0
1.906620291E1,-3.532509804E-1,3.880825043E-1,-1.092864990E0
1.908503119E1,-2.446966171E-1,5.286276340E-1,-1.067385197E0
1.910385942E1,-3.518667221E-1,6.692287922E-1,-9.255290031E-1
1.912268770E1,-3.680858612E-1,6.536502838E-1,-6.698050499E-1
1.914151593E1,-3.962478638E-1,7.506241798E-1,-2.963781357E-1
1.916034421E1,-4.940867424E-1,6.080141068E-1,-3.302860260E-2
1.917917244E1,-4.197649956E-1,7.220289707E-1,1.585168839E-1
1.919800072E1,-4.705667496E-1,9.925701618E-1,3.826007843E-1
1.921682900E1,-3.950877190E-1,1.085728168E0,4.527502060E-1
1.923565723E1,-4.569244385E-1,9.520721436E-1,5.078964233E-1
1.925448551E1,-3.957314491E-1,7.959475517E-1,4.764623642E-1
1.927331374E1,-2.352852821E-1,6.628758907E-1,2.815523148E-1
1.929214202E1,-9.711980820E-2,7.131793499E-1,2.214374542E-1
1.931097025E1,-6.209373474E-3,6.357879639E-1,-3.424072266E-2
1.932979854E1,-7.253122330E-2,5.899727345E-1,-3.414778709E-1
1.934862676E1,-3.542184830E-2,4.809403419E-1,-6.835260391E-1
1.936745504E1,-9.587478638E-2,5.673549175E-1,-8.609671593E-1
1.938628328E1,4.325866699E-3,4.540827274E-1,-9.563980103E-1
1.940511156E1,1.848826408E-1,3.479785919E-1,-8.574252129E-1
1.942393978E1,3.597636223E-1,3.958220482E-1,-7.404079437E-1
1.944276807E1,4.463529587E-1,5.573751926E-1,-7.700018883E-1
1.946159630E1,4.181904793E-1,7.563600540E-1,-6.967582703E-1
1.948042458E1,3.648657799E-1,8.563477993E-1,-5.386986732E-1
1.949925281E1,4.700617790E-1,8.120865822E-1,-3.877267838E-1
1.951808109E1,5.655665398E-1,8.763141632E-1,-2.116894722E-1
1.953690937E1,5.993652344E-1,9.002625942E-1,-2.143115997E-1
1.955573760E1,6.080169678E-1,9.217531681E-1,-3.503041267E-1
1.957456588E1,6.395146847E-1,9.261832237E-1,-5.034379959E-1
1.959339411E1,6.374347210E-1,9.559850693E-1,-6.346912384E-1
1.961222239E1,5.660061836E-1,1.006657362E0,-8.174962997E-1
1.963105062E1,6.660513878E-1,9.653501511E-1,-9.718751907E-1
1.964987885E1,6.900854111E-1,1.136566162E0,-1.009787083E0
1.966870713E1,6.718869209E-1,1.284790754E0,-9.029350281E-1
1.968753536E1,6.274809837E-1,1.092246532E0,-7.512331009E-1
1.970636364E1,4.497747421E-1,9.856188297E-1,-5.072860718E-1
1.972519187E1,3.794808388E-1,1.504882336E0,2.989864349E-1
1.974402015E1,-5.196242332E-1,2.221984148E0,8.562107086E-1
1.976284838E1,-1.212275505E0,1.179847717E-1,8.527770042E-1
1.978167666E1,-8.927254677E-1,-4.637892246E-1,1.163828373E0
1.980050489E1,-6.618418694E-1,-1.548593044E-1,1.115620613E0
1.981933317E1,-7.470192909E-1,4.762768745E-1,7.546138763E-1
1.983816140E1,-9.894733429E-1,6.142625809E-1,6.403503418E-1
1.985698968E1,-9.948730469E-1,3.280029297E-1,7.296590805E-1
1.987581791E1,-9.246101379E-1,2.035570145E-2,7.589168549E-1
1.989464619E1,-8.719115257E-1,-1.701717377E-1,6.207404137E-1
1.991347442E1,-8.412184715E-1,-3.884086609E-1,5.440945625E-1
1.993230270E1,-6.613140106E-1,-5.637359619E-1,5.589203835E-1
1.995113093E1,-6.405444145E-1,-6.628618240E-1,5.314807892E-1
1.996995916E1,-8.017115593E-1,-8.287878036E-1,5.261359215E-1
1.998878744E1,-8.527894020E-1,-1.029089928E0,5.325551033E-1
2.000761567E1,-7.810835838E-1,-1.058673382E0,5.988883972E-1
2.002644395E1,-6.097879410E-1,-9.262316227E-1,7.951927185E-1
2.004527218E1,-3.903779984E-1,-7.821612358E-1,8.963823318E-1
2.006410046E1,-2.776904106E-1,-6.341176033E-1,7.961444855E-1
2.008292869E1,-1.809611320E-1,-5.955171585E-1,5.658535957E-1
2.010175692E1,-9.558773041E-2,-5.905127525E-1,4.871611595E-1
2.012058520E1,3.100633621E-2,-6.274485588E-1,3.522043228E-1
2.013941343E1,1.331286430E-1,-5.558710098E-1,2.835335732E-1
2.015824171E1,1.735258102E-1,-4.813065529E-1,2.704052925E-1
2.017706994E1,1.689658165E-1,-5.455074310E-1,3.060946465E-1
2.019589817E1,1.826157570E-1,-6.095538139E-1,3.842525482E-1
2.021472645E1,1.154665947E-1,-5.438876152E-1,5.078601837E-1
2.023355468E1,-1.386165619E-2,-4.229459763E-1,6.089768410E-1
2.025238296E1,-3.901720047E-2,-4.397196770E-1,6.856570244E-1
2.027121119E1,-1.076936722E-1,-2.950434685E-1,8.337607384E-1
2.029003947E1,-2.117252350E-1,-3.567714691E-1,8.246707916E-1
2.030886770E1,-2.390065193E-1,-3.508963585E-1,8.390984535E-1
2.032769593E1,-1.808781624E-1,-4.322347641E-1,7.842402458E-1
2.034652421E1,-1.878581047E-1,-4.689373970E-1,6.874108315E-1
2.036535244E1,-1.736168861E-1,-4.731645584E-1,5.421581268E-1
2.038418072E1,-6.498575211E-2,-5.405020714E-1,3.859868050E-1
2.040300895E1,-6.414270401E-2,-5.090994835E-1,2.052059174E-1
2.042183718E1,-4.103374481E-2,-5.515227318E-1,5.789661407E-2
2.044066546E1,4.265213013E-2,-5.655555725E-1,-1.106643677E-2
2.045949369E1,1.143641472E-1,-5.531191826E-1,-1.060562134E-1
2.047832192E1,1.800999641E-1,-6.024398804E-1,-1.909890175E-1
2.049715020E1,2.079181671E-1,-5.484170914E-1,-3.006038666E-1
2.051597843E1,2.075276375E-1,-4.168429375E-1,-2.558202744E-1
2.053480671E1,2.518897057E-1,-3.766732216E-1,-2.260828018E-1
2.055363494E1,2.683825493E-1,-3.115639687E-1,-2.242035866E-1
2.057246317E1,2.386050224E-1,-2.598695755E-1,-2.173476219E-1
2.059129145E1,2.084698677E-1,-2.143526077E-1,-3.191437721E-1
2.061011968E1,1.748690605E-1,-2.686004639E-1,-3.546671867E-1
2.062894791E1,1.595749855E-1,-2.221813202E-1,-2.758226395E-1
2.064777619E1,-5.141496658E-2,-1.834354401E-1,-2.223777771E-1
2.066660442E1,-2.374424934E-1,-2.972569466E-1,-2.316517830E-1
2.068543265E1,-2.972083092E-1,-3.582668304E-1,-5.960178375E-2
2.070426093E1,-4.094815254E-1,-4.095535278E-1,1.430845261E-2
2.072308916E1,-5.313668251E-1,-5.066263676E-1,-1.200141907E-1
2.074191744E1,-6.051759720E-1,-5.028557777E-1,-2.773056030E-1
2.076074567E1,-5.975179672E-1,-4.075980186E-1,-4.127511978E-1
2.077957390E1,-6.202073097E-1,-3.199772835E-1,-4.924979210E-1
2.079840213E1,-3.657627106E-1,-2.790679932E-1,-5.013275146E-1
2.081723041E1,-1.752052307E-1,-1.872639656E-1,-5.907416344E-1
2.083605864E1,-1.582460403E-1,-1.811900139E-1,-6.565113068E-1
2.085488687E1,2.712011337E-2,-1.527132988E-1,-6.453847885E-1
2.087371515E1,7.639741898E-2,1.614360809E-1,-5.347833633E-1
2.089254338E1,-2.589511871E-2,2.613844872E-1,-5.712294579E-1
2.091137161E1,3.574228287E-2,3.505902290E-1,-4.718818665E-1
2.093019989E1,2.769565582E-1,3.820300102E-1,-2.151751518E-1
2.094902812E1,5.649659634E-1,2.950215340E-1,4.037237167E-2
2.096785635E1,8.393085003E-1,4.375867844E-1,1.362266541E-1
2.098668463E1,1.108569384E0,8.385176659E-1,2.446064949E-1
2.100551286E1,1.273852110E0,1.104298592E0,5.112805367E-1
2.102434109E1,1.363811255E0,8.662843704E-1,8.389444351E-1
2.104316937E1,1.422285080E0,4.187030792E-1,1.020186424E0
2.106199760E1,1.494875193E0,2.556447983E-1,1.058846474E0
2.108082583E1,1.423469543E0,3.049321175E-1,1.022690296E0
2.109965411E1,1.255568743E0,3.944616318E-1,8.579792976E-1
2.111848234E1,8.158347607E-1,1.494164467E-1,4.758582115E-1
2.113731057E1,3.677144051E-1,-8.476400375E-2,1.962504387E-1
2.115613885E1,-1.647119522E-1,-6.532669067E-4,2.634239197E-2
2.117496708E1,-6.595621109E-1,4.423618317E-3,-8.017539978E-3
2.119379531E1,-6.597695351E-1,-2.396769524E-1,9.379911423E-2
2.121262354E1,-5.672922134E-1,-3.059983253E-1,4.268612862E-1
2.123145182E1,-4.577794075E-1,-4.429616928E-1,4.752616882E-1
2.125028004E1,-5.551285744E-1,-1.652913094E-1,7.747569084E-1
2.126910828E1,-3.788852692E-1,-3.955416679E-1,7.514190674E-1
2.128793650E1,-2.016954422E-1,-3.491396904E-1,6.969871521E-1
2.130676479E1,1.588916779E-2,-2.083120346E-1,3.415937424E-1
2.132559301E1,2.018413544E-1,6.942558289E-2,7.863998413E-3
2.134442124E1,5.381751060E-1,2.145075798E-1,-1.045160294E-1
2.136324947E1,7.726445198E-1,4.082937241E-1,6.913518906E-2
2.138207775E1,7.891292572E-1,2.476058006E-1,8.258962631E-2
2.140090598E1,7.983531952E-1,2.823624611E-1,1.187524796E-1
2.141973421E1,6.955785751E-1,3.475756645E-1,5.820894241E-2
2.143856244E1,6.343059540E-1,3.182306290E-1,1.060833931E-1
2.145739072E1,6.640644073E-1,1.917538643E-1,3.764052391E-1
2.147621895E1,7.840509415E-1,-1.211590767E-1,5.050034523E-1
2.149504718E1,8.487973213E-1,-2.380900383E-1,5.633749962E-1
2.151387541E1,7.904591560E-1,-2.992925644E-1,5.534291267E-1
2.153270364E1,6.127696037E-1,-2.554683685E-1,6.187181473E-1
2.155153187E1,6.673378944E-1,-2.478518486E-1,5.305957794E-1
2.157036015E1,7.084856033E-1,-3.233785629E-1,6.318221092E-1
2.158918838E1,9.135842323E-1,-4.958281517E-1,4.542894363E-1
2.160801661E1,9.945325851E-1,-3.535437584E-1,2.665758133E-1
2.162684484E1,7.056512833E-1,-1.263298988E-1,5.700778961E-2
2.164567312E1,4.062600136E-1,1.563816071E-1,1.313467026E-1
2.166450135E1,2.964220047E-1,2.330718040E-1,1.935729980E-1
2.168332958E1,1.614527702E-1,3.246736526E-1,2.212762833E-2
2.170215781E1,-1.140675545E-1,5.092840195E-1,7.463979721E-2
2.172098604E1,-3.240556717E-1,4.781079292E-1,3.702220917E-1
2.173981432E1,-4.226541519E-1,7.512569427E-2,4.139757156E-1
2.175864254E1,-6.401414871E-1,-2.553763390E-1,2.675213814E-1
2.177747078E1,-8.593902588E-1,-4.204335213E-1,-6.690740585E-2
2.179629900E1,-8.363013268E-1,-2.569174767E-1,-5.286741257E-1
2.181512723E1,-7.555899620E-1,3.644561768E-1,-7.809767723E-1
2.183395546E1,-5.410299301E-1,7.435779572E-1,-9.283404350E-1
2.185292619E1,-2.755618095E-1,7.757072449E-1,-1.158858776E0
2.187213083E1,-2.209496498E-1,7.892155647E-1,-1.419575691E0
2.189133531E1,-2.865991592E-1,7.179560661E-1,-1.620483875E0
2.191053978E1,-4.164986610E-1,6.663427353E-1,-1.519861221E0
2.192974426E1,-4.964399338E-1,5.880684853E-1,-1.380718708E0
2.194894874E1,-8.268208504E-1,5.678339005E-1,-1.284852982E0
2.196810666E1,-1.317872524E0,3.445048332E-1,-1.310036182E0
2.198693494E1,-1.765329123E0,1.059617996E-1,-1.354869843E0
2.200576317E1,-2.082427740E0,-5.627727509E-2,-1.269455910E0
2.202459140E1,-2.137534380E0,-2.039771080E-1,-1.114192486E0
2.204341963E1,-1.992068529E0,-3.934507370E-1,-7.866892815E-1
2.206224786E1,-1.702517033E0,-3.172545433E-1,-4.208455086E-1
2.208107609E1,-1.727184057E0,3.688335419E-3,-1.667761803E-1
2.209990437E1,-1.748455524E0,4.479184151E-1,1.417751312E-1
2.211873260E1,-1.937573433E0,5.006732941E-1,7.047147751E-1
2.213756083E1,-2.110467434E0,1.563100815E-1,1.088701248E0
2.215638906E1,-2.574076414E0,-2.120718956E-1,1.216966629E0
2.217521729E1,-2.883223534E0,-6.327223778E-1,1.129687786E0
2.219404557E1,-2.714771032E0,-7.766685486E-1,1.060420513E0
2.221287380E1,-2.282709837E0,-7.981772423E-1,9.124617577E-1
2.223170202E1,-1.688253164E0,-7.793760300E-1,5.404486656E-1
2.225053025E1,-9.683225155E-1,-8.132696152E-1,1.295471191E-1
2.226935848E1,-2.969436646E-1,-6.853957176E-1,-3.137969971E-1
2.228818671E1,8.213472366E-2,-2.994828224E-1,-7.199983597E-1
2.230701494E1,7.433176041E-3,-5.260944366E-3,-1.090984344E0
2.232584322E1,-2.059056759E-1,2.004795074E-1,-1.302708626E0
2.234467145E1,-3.697595596E-1,1.393218040E-1,-1.288773060E0
2.236349968E1,-6.401438713E-1,-8.562564850E-3,-1.098988533E0
2.238232791E1,-1.016826868E0,-2.763385773E-1,-8.740334511E-1
2.240115614E1,-1.181540489E0,-4.330773354E-1,-7.238106728E-1
2.241998437E1,-1.158943415E0,-4.729309082E-1,-6.686916351E-1
2.243881260E1,-8.700823784E-1,-3.546657562E-1,-5.096940994E-1
2.245764083E1,-3.928894997E-1,-8.758640289E-2,-1.177492142E-1
2.247646906E1,-2.068948746E-2,9.566497803E-2,1.386833191E-1
2.249529729E1,8.540487289E-2,1.566214561E-1,1.920137405E-1
2.251412557E1,6.947517395E-4,3.386530876E-1,2.203569412E-1
2.253295380E1,1.285171509E-2,2.082219124E-1,2.382993698E-1
2.255178202E1,2.594347000E-1,-9.773588181E-2,3.522439003E-1
2.257061025E1,4.368724823E-1,-1.119112968E-1,4.001317024E-1
2.258943848E1,4.418921471E-1,-5.894899368E-2,2.991747856E-1
2.260826671E1,4.703292847E-1,-3.938198090E-3,2.448716164E-1
2.262709494E1,4.731993675E-1,4.742431641E-2,1.812181473E-1
2.264592317E1,4.512186050E-1,-1.170902252E-1,-8.640289307E-3
2.266475140E1,4.567251205E-1,-1.144270897E-1,-8.919668198E-2
2.268357963E1,5.801672935E-1,-4.028081894E-2,-1.078300476E-1
2.270240786E1,5.212602615E-1,-1.440968513E-1,-1.590762138E-1
2.272123609E1,5.839872360E-1,-3.307909966E-1,-1.303410530E-1
2.274006437E1,5.885887146E-1,-3.886432648E-1,-1.288075447E-1
2.275889260E1,4.453163147E-1,-4.611272812E-1,-1.431460381E-1
2.277772083E1,3.821611404E-1,-5.348644257E-1,-1.926612854E-1
2.279654906E1,2.920975685E-1,-4.617502689E-1,-2.562685013E-1
2.281537728E1,1.028723717E-1,-4.692850113E-1,-2.036304474E-1
2.283420551E1,3.350114822E-2,-5.039701462E-1,-1.125469208E-1
2.285303374E1,-1.649165154E-1,-3.941187859E-1,-3.518533707E-2
2.287186197E1,-3.944168091E-1,-3.974137306E-1,4.094362259E-2
2.289069020E1,-4.185810089E-1,-4.912276268E-1,1.248602867E-1
2.290951843E1,-3.812909126E-1,-5.412869453E-1,1.489048004E-1
2.292834666E1,-3.491067886E-1,-4.329118729E-1,3.572530746E-1
2.294717489E1,-3.294301033E-1,-2.549972534E-1,4.087920189E-1
2.296600312E1,-3.678956032E-1,-2.766089439E-1,2.788653374E-1
2.298483135E1,-4.616098404E-1,-1.118016243E-1,4.355888367E-1
2.300365958E1,-3.557634354E-1,-3.725814819E-2,4.403843880E-1
2.302248781E1,-4.357557297E-1,1.122870445E-1,4.732732773E-1
2.304131604E1,-4.893240929E-1,1.033101082E-1,4.077563286E-1
2.306014426E1,-4.188017845E-1,1.272783279E-1,2.780056000E-1
2.307897249E1,-3.161826134E-1,2.266373634E-1,2.626771927E-1
2.309780072E1,-6.094837189E-2,2.995700836E-1,1.292977333E-1
2.311662895E1,2.269892693E-1,2.959918976E-1,1.261620522E-1
2.313545723E1,4.760451317E-1,3.427643776E-1,3.385114670E-2
2.315428546E1,5.632057190E-1,2.993149757E-1,-9.114027023E-2
2.317311369E1,5.184073448E-1,2.946543694E-1,-2.201557159E-1
2.319194192E1,4.969205856E-1,2.469372749E-1,-2.958021164E-1
2.321077015E1,4.586248398E-1,1.611266136E-1,-3.494353294E-1
2.322959838E1,4.168200493E-1,1.876549721E-1,-1.633338928E-1
2.324842661E1,5.000014305E-1,1.205792427E-1,1.804304123E-2
2.326725484E1,5.540542603E-1,1.807761192E-1,2.012476921E-1
2.328608307E1,5.163507462E-1,1.652126312E-1,2.719225883E-1
2.330491130E1,5.466213226E-1,-2.582263947E-2,2.726302147E-1
2.332373952E1,6.870932579E-1,-8.852243423E-2,2.445592880E-1
2.334256775E1,7.458953857E-1,6.353569031E-2,2.494459152E-1
2.336139598E1,7.903490067E-1,-1.996088028E-2,2.495455742E-1
2.338022421E1,8.457956314E-1,-2.003412247E-1,1.589055061E-1
2.339905244E1,8.039956093E-1,-3.101043701E-1,7.029294968E-2
2.341788067E1,7.410337925E-1,-3.407187462E-1,-8.938789368E-2
2.343670890E1,6.691412926E-1,-2.920761108E-1,-1.378273964E-1
2.345553713E1,7.199137211E-1,-2.034883499E-1,8.258342743E-3
2.347436536E1,6.527364254E-1,-1.773967743E-1,1.745648384E-1
2.349319359E1,4.568963051E-1,-1.051135063E-1,2.393007278E-1
2.351202182E1,1.881470680E-1,2.604484558E-3,3.150572777E-1
2.353085004E1,5.123090744E-2,-1.128315926E-1,2.992506027E-1
2.354967828E1,-6.799221039E-2,-1.466245651E-1,3.149690628E-1
2.356850650E1,-9.594154358E-2,-1.453909874E-1,3.206954002E-1
2.358733473E1,-9.957695007E-2,-2.028188705E-1,2.941370010E-1
2.360616296E1,-1.879372597E-1,-3.093590736E-1,2.485990524E-1
2.362499119E1,-3.736824989E-1,-5.601205826E-1,4.213142395E-2
2.364381942E1,-4.894514084E-1,-6.552867889E-1,4.628276825E-2
2.366264765E1,-5.288310051E-1,-7.150950432E-1,1.145138741E-1
2.368147588E1,-6.809592247E-1,-5.570311546E-1,2.237625122E-1
2.370030411E1,-8.662748337E-1,-5.571470261E-1,3.172225952E-1
2.371913234E1,-9.364256859E-1,-5.487170219E-1,5.692729950E-1
2.373796057E1,-9.851679802E-1,-5.681557655E-1,7.086515427E-1
2.375678880E1,-1.007824421E0,-6.059236526E-1,8.696780205E-1
2.377561703E1,-9.234967232E-1,-7.919211388E-1,9.672069550E-1
2.379444520E1,-8.385367393E-1,-9.506261349E-1,8.715567589E-1
2.381327343E1,-7.844653130E-1,-9.709668159E-1,8.156094551E-1
2.383210171E1,-7.169656754E-1,-1.026878119E0,6.340694427E-1
2.385092989E1,-7.785310745E-1,-1.059788942E0,5.141615868E-1
2.386975812E1,-8.168048859E-1,-1.124746799E0,3.946003914E-1
2.388858635E1,-8.959531784E-1,-1.227897406E0,3.663797379E-1
2.390741458E1,-9.495654106E-1,-1.297611713E0,3.814830780E-1
2.392624281E1,-1.001250267E0,-1.409973621E0,5.099029541E-1
2.394507104E1,-9.895834923E-1,-1.376215219E0,7.290043831E-1
2.396389926E1,-9.394640923E-1,-1.375766277E0,9.126954079E-1
2.398272749E1,-9.254217148E-1,-1.356922865E0,1.017429352E0
2.400155572E1,-8.774571419E-1,-1.409011841E0,1.007875443E0
2.402038395E1,-8.943223953E-1,-1.402191639E0,9.106335640E-1
2.403921218E1,-9.336252213E-1,-1.544028044E0,7.278594971E-1
2.405804703E1,-1.046840191E0,-1.526174307E0,6.462030411E-1
2.407687526E1,-1.126215935E0,-1.533592463E0,5.704360008E-1
2.409570349E1,-1.219839096E0,-1.271714449E0,5.223026276E-1
2.411453172E1,-1.307788849E0,-7.913568020E-1,5.197882652E-1
2.413335995E1,-1.312956810E0,-5.123786926E-1,4.846529961E-1
2.415218818E1,-1.328153133E0,-1.351325512E-1,4.895563126E-1
2.417101641E1,-1.413782597E0,4.431200027E-1,5.929303169E-1
2.418984464E1,-1.399122715E0,7.843623161E-1,6.703939438E-1
2.420867286E1,-1.358253479E0,1.231077909E0,8.739309311E-1
2.422750110E1,-1.268067837E0,1.617410421E0,6.559977531E-1
2.424632932E1,-9.274020195E-1,1.092254639E0,-1.022934914E-1
2.426515755E1,2.610635757E-2,6.507666111E-1,-8.104085922E-1
2.428398578E1,9.890027046E-1,8.380997181E-1,-1.430882931E0
2.430281401E1,1.458266497E0,1.170149803E0,-2.038767338E0
2.432164219E1,1.630987406E0,1.576416492E0,-2.438947201E0
2.434047042E1,1.681698322E0,1.723190308E0,-2.483242512E0
2.435929865E1,1.684878588E0,1.815615177E0,-2.272059441E0
2.437812688E1,1.609790802E0,1.770605564E0,-2.024516106E0
2.439695510E1,1.595093966E0,1.680139780E0,-1.713757992E0
2.441578333E1,1.530445337E0,1.657313466E0,-1.414916515E0
2.443461156E1,1.485758066E0,1.538284898E0,-9.738612175E-1
2.445343979E1,1.449790239E0,1.474362373E0,-5.598964691E-1
2.447226802E1,1.331420422E0,1.424608707E0,-1.456089020E-1
2.449109625E1,1.038934708E0,1.388131380E0,2.390041351E-1
2.450992448E1,8.183546066E-1,1.230688095E0,4.956274033E-1
2.452875271E1,7.711839676E-1,1.131957769E0,5.231895447E-1
2.454758094E1,7.535402775E-1,1.149250984E0,2.225904465E-1
2.456640917E1,6.804225445E-1,1.312263489E0,-1.449422836E-1
2.458523740E1,6.962778568E-1,1.214929581E0,-4.321804047E-1
2.460406563E1,7.603356838E-1,1.044685125E0,-5.421376228E-1
2.462289386E1,6.842679977E-1,9.090070724E-1,-6.612286568E-1
2.464172203E1,4.631934166E-1,8.723227978E-1,-8.383898735E-1
2.466055026E1,3.576173782E-1,7.207651138E-1,-7.885890007E-1
2.467937849E1,4.054157734E-1,7.483463287E-1,-6.005482674E-1
2.469820672E1,3.356924057E-1,8.389623165E-1,-3.803319931E-1
2.471703495E1,2.274594307E-1,8.051218987E-1,-2.161560059E-1
2.473586318E1,9.524106979E-2,6.385173798E-1,-1.639242172E-1
2.475469141E1,5.348825455E-2,5.197992325E-1,-1.096277237E-1
2.477351964E1,5.158996582E-2,4.236304760E-1,-5.661487579E-2
2.479234786E1,2.916955948E-2,5.085783005E-1,4.793834686E-2
2.481117610E1,6.370162964E-2,5.680665970E-1,1.070690155E-2
2.483000432E1,3.782081604E-2,7.261035442E-1,-6.861782074E-2
2.484883250E1,6.263208389E-2,7.711284161E-1,-1.101341248E-1
2.486766073E1,1.560592651E-1,6.780776978E-1,-8.253383636E-2
2.488648896E1,2.452723980E-1,5.793712139E-1,-1.034488678E-1
2.490531719E1,9.471702576E-2,5.205366611E-1,-1.606998444E-1
2.492414542E1,1.916122437E-2,4.575631618E-1,-2.422409058E-1
2.494297365E1,-1.351642609E-2,3.176138401E-1,-3.853683472E-1
2.496180188E1,3.990650177E-3,1.969380379E-1,-5.187401772E-1
2.498063011E1,1.168375015E-1,-2.765631676E-2,-5.872011185E-1
2.499945833E1,1.720595360E-1,-2.930796146E-1,-6.413707733E-1
2.501828656E1,1.858162880E-1,-5.057539940E-1,-5.887384415E-1
2.503711479E1,6.210565567E-2,-8.584794998E-1,-6.272625923E-1
2.505594297E1,-3.685379028E-2,-1.298460960E0,-6.063327789E-1
2.507477120E1,-1.991353035E-1,-1.582723618E0,-6.911053658E-1
2.509359943E1,-3.862285614E-1,-1.497557640E0,-6.306271553E-1
2.511242766E1,-6.776127815E-1,-1.115807772E0,-4.494414330E-1
2.513125589E1,-9.933819771E-1,-1.023163319E0,-1.839265823E-1
2.515008412E1,-1.230080128E0,-9.338898659E-1,9.277725220E-2
2.516891235E1,-1.565686226E0,-5.755720139E-1,4.419088364E-1
2.518774057E1,-1.828766823E0,-1.640877724E-1,7.593059540E-1
2.520656880E1,-1.855115891E0,3.545522690E-2,9.702444077E-1
2.522539703E1,-1.735067844E0,1.790571213E-1,9.599380493E-1
2.524422521E1,-1.360706806E0,1.140668392E-1,8.197002411E-1
2.526305344E1,-8.534345627E-1,1.693890095E-1,4.226350784E-1
2.528188167E1,-3.620443344E-1,4.509804249E-1,5.673027039E-2
2.530070990E1,1.606607437E-1,7.682607174E-1,-2.981448174E-1
2.531953813E1,6.656782627E-1,9.475069046E-1,-4.139618874E-1
2.533836636E1,1.003900290E0,1.065408468E0,-3.066596985E-1
2.535719458E1,1.141160965E0,1.091859818E0,-2.468643188E-1
2.537602276E1,1.084829807E0,1.143110991E0,-1.847743988E-2
2.539485099E1,9.300296307E-1,1.060094595E0,7.222557068E-2
2.541367922E1,7.895338535E-1,8.988735676E-1,1.993875504E-1
2.543250745E1,7.043569088E-1,7.332351208E-1,1.366348267E-1
2.545133568E1,4.852805138E-1,7.870373726E-1,1.186943054E-1
2.547016391E1,3.275370598E-1,7.208359241E-1,2.651553154E-1
2.548899208E1,3.572106361E-1,4.118118286E-1,2.559270859E-1
2.550782031E1,2.154631615E-1,3.194344044E-1,1.474761963E-1
2.552664854E1,8.009958267E-2,8.755898476E-2,-1.729092598E-1
2.554547677E1,-1.213216782E-2,1.065504551E-1,-4.156422615E-1
2.556430500E1,-3.891663551E-1,7.207007408E-1,-2.426280975E-1
2.558313323E1,-5.209712982E-1,5.056185722E-1,-1.498951912E-1
2.560196141E1,-3.704242706E-1,3.117268085E-1,-3.751134872E-2
2.562078964E1,-4.156861305E-1,2.923808098E-1,-1.224174500E-1
2.563961786E1,-5.222320557E-1,3.761076927E-1,-3.057379723E-1
2.565844610E1,-6.819620132E-1,8.394191265E-1,-3.098874092E-1
2.567727432E1,-9.260082245E-1,8.383631706E-1,-3.574528694E-1
2.569610255E1,-7.144050598E-1,5.783267021E-1,-3.248434067E-1
2.571493073E1,-6.039400101E-1,4.239134789E-1,-4.385409355E-1
2.573375896E1,-5.817718506E-1,5.670123100E-1,-5.607075691E-1
2.575258719E1,-4.075784683E-1,6.482706070E-1,-6.059975624E-1
2.577141542E1,-2.809996605E-1,6.344103813E-1,-6.288361549E-1
2.579024360E1,-7.657670975E-2,5.905761719E-1,-5.924677849E-1
2.580907182E1,-5.781650543E-3,5.738892555E-1,-6.257014275E-1
2.582790005E1,3.550100327E-2,5.964379311E-1,-7.783346176E-1
2.584672828E1,-5.151939392E-2,7.030887604E-1,-6.800341606E-1
2.586555651E1,-2.178573608E-2,4.757628441E-1,-6.076855659E-1
2.588438469E1,8.294010162E-2,3.864197731E-1,-5.649957657E-1
2.590321292E1,-1.836395264E-2,5.004920959E-1,-6.248836517E-1
2.592204115E1,-1.587142944E-1,6.459770203E-1,-6.006398201E-1
2.594086938E1,-5.640363693E-2,6.226720810E-1,-5.584292412E-1
2.595969761E1,4.005432129E-3,8.200964928E-1,-5.156044960E-1
2.597852578E1,1.526880264E-2,9.128732681E-1,-4.686603546E-1
2.599735401E1,1.542448997E-1,7.137303352E-1,-4.359412193E-1
2.601618224E1,5.956611633E-1,3.191695213E-1,-3.414249420E-1
2.603501047E1,1.027354240E0,1.272816658E-1,-4.080810547E-1
2.605383865E1,1.255558252E0,2.087039948E-1,-5.339241028E-1
2.607266688E1,1.532830954E0,5.793237686E-1,-5.098323822E-1
2.609149510E1,1.751926661E0,1.517182827E0,-3.418755531E-1
2.611032333E1,2.056690454E0,1.918743610E0,-2.739424706E-1
2.612915151E1,2.340886593E0,2.216193676E0,-2.790131569E-1
2.614797974E1,2.352854729E0,2.204798222E0,-3.302650452E-1
2.616680797E1,2.389870405E0,2.149435997E0,-2.359995842E-1
2.618563620E1,2.325373650E0,1.790301323E0,-1.502747536E-1
2.620446443E1,2.080987215E0,1.536520481E0,-2.771029472E-1
2.622329260E1,1.443001032E0,1.960691929E0,-1.401972771E-1
2.624212083E1,6.670632362E-1,2.233376026E0,1.792678833E-1
2.626094906E1,5.077900887E-1,1.806185722E0,5.299553871E-1
2.627977724E1,6.672568321E-1,1.101960659E0,8.199119568E-1
2.629860547E1,8.420078754E-1,7.912950516E-1,1.112728119E0
2.631743370E1,6.419219971E-1,6.655902863E-1,1.383578777E0
2.633626193E1,2.230973244E-1,5.442671776E-1,1.515421867E0
2.635509011E1,-3.827996254E-1,3.654303551E-1,1.585043907E0
2.637391833E1,-8.382344246E-1,-3.451204300E-2,1.613048553E0
2.639274656E1,-1.063285351E0,-3.054232597E-1,1.615685463E0
2.641157479E1,-1.237385750E0,-3.084864616E-1,1.424744606E0
2.643040297E1,-1.214789391E0,-1.893138885E-1,9.794087410E-1
2.644923120E1,-9.353775978E-1,-4.274845123E-2,5.894947052E-1
2.646805943E1,-5.309891701E-1,1.854887009E-1,3.757262230E-1
2.648688761E1,-2.446765900E-1,3.291215897E-1,2.414002419E-1
2.650571583E1,-5.130290985E-3,3.444571495E-1,6.933879852E-2
2.652454406E1,2.034468651E-1,2.098727226E-1,-2.163348198E-1
2.654337229E1,3.097126484E-1,1.940751076E-1,-4.823975563E-1
2.656220047E1,4.521658421E-1,3.014903069E-1,-6.603469849E-1
2.658102870E1,5.785448551E-1,6.400861740E-1,-7.696146965E-1
2.659985693E1,6.558206081E-1,9.378442764E-1,-7.576169968E-1
2.661868516E1,7.396597862E-1,9.243001938E-1,-7.684559822E-1
2.663751333E1,6.733760834E-1,9.546375275E-1,-6.641297340E-1
2.665634156E1,4.885931015E-1,8.968229294E-1,-7.056164742E-1
2.667516979E1,2.401735783E-1,7.048964500E-1,-6.762971878E-1
2.669399797E1,2.208609581E-1,5.582041740E-1,-6.838083267E-1
2.671282620E1,1.128556728E-1,6.394085884E-1,-6.587257385E-1
2.673165443E1,-1.326560974E-3,6.278753281E-1,-7.180790901E-1
2.675048261E1,1.366162300E-2,5.715618134E-1,-6.720595360E-1
2.676931083E1,4.199075699E-2,4.437546730E-1,-5.002670288E-1
2.678813906E1,3.801250458E-2,1.749906540E-1,-3.539490700E-1
2.680696724E1,-4.510474205E-2,-1.233382225E-1,-2.558631897E-1
2.682579547E1,-2.364456654E-1,-1.057920456E-1,-2.777791023E-1
2.684462370E1,-4.141926765E-1,1.777215004E-1,-2.805061340E-1
2.686345188E1,-4.518918991E-1,5.287966728E-1,-2.151269913E-1
2.688228011E1,-4.880418777E-1,7.113800049E-1,-1.616277695E-1
2.690110833E1,-5.975408554E-1,1.081454277E0,1.855468750E-2
2.691993651E1,-6.715004444E-1,7.679977417E-1,1.571946144E-1
2.693876474E1,-4.980428219E-1,-1.049652100E-1,1.672320366E-1
2.695759297E1,-3.687548637E-1,-4.379038811E-1,5.871343613E-2
2.697642115E1,-3.733522892E-1,-3.419399261E-1,-2.655358315E-1
2.699524938E1,-2.901372910E-1,-3.056192398E-2,-5.853056908E-1
2.701407755E1,-1.552004814E-1,-1.535940170E-2,-9.027128220E-1
2.703290578E1,-1.231002808E-1,1.057910919E-2,-1.249447823E0
2.705173401E1,-3.476042747E-1,-1.168117523E-1,-1.734505177E0
2.707056219E1,-6.103029251E-1,-4.341745377E-2,-1.988042355E0
2.708939042E1,-8.273203373E-1,-2.375078201E-2,-1.998249054E0
2.710821865E1,-9.917132854E-1,-1.326112747E-1,-2.052485466E0
2.712704682E1,-1.082842350E0,-6.935071945E-2,-2.015894413E0
2.714587505E1,-1.132417202E0,1.534929276E-1,-1.792528629E0
2.716470328E1,-1.163283348E0,1.196494102E-1,-1.628906727E0
2.718353146E1,-1.032233953E0,-1.600360870E-2,-1.417201996E0
2.720235969E1,-8.008277416E-1,7.873773575E-2,-1.191754341E0
2.722118792E1,-6.827673912E-1,2.606368065E-1,-9.626855850E-1
2.724001610E1,-6.106820107E-1,3.118753433E-1,-8.065919876E-1
2.725884432E1,-5.231020451E-1,3.620676994E-1,-6.534190178E-1
2.727767250E1,-6.288135052E-1,5.629844666E-1,-4.363002777E-1
2.729650073E1,-6.927969456E-1,5.784487724E-1,-3.949499130E-1
2.731532896E1,-7.644493580E-1,7.831397057E-1,-2.628397942E-1
2.733415714E1,-9.628036022E-1,8.360805511E-1,-1.605544090E-1
2.735298537E1,-1.100299597E0,6.489939690E-1,2.423954010E-2
2.737181360E1,-1.202503920E0,3.890452385E-1,5.189132690E-2
2.739064177E1,-1.274923325E0,2.061247826E-1,9.707546234E-2
2.740947000E1,-1.256533861E0,1.250796318E-1,1.240682602E-1
2.742829818E1,-1.131574631E0,-6.567478180E-3,3.972387314E-2
2.744712641E1,-9.236810207E-1,-1.792674065E-1,3.226995468E-2
2.746595464E1,-8.109924793E-1,-1.144185066E-1,-3.879833221E-2
2.748478281E1,-7.996318340E-1,1.171393394E-1,-9.806394577E-2
2.750361104E1,-8.442552090E-1,4.828147888E-1,-6.553983688E-2
2.752243927E1,-9.454298019E-1,1.139666557E0,-9.187555313E-2
2.754126745E1,-1.135869265E0,1.603593349E0,3.127861023E-2
2.756009568E1,-1.254329681E0,1.509732723E0,3.084874153E-1
2.757892386E1,-1.343537569E0,9.877457619E-1,7.316908836E-1
2.759775208E1,-1.291992188E0,2.545757294E-1,1.202621937E0
2.761658031E1,-1.346041203E0,-3.529844284E-1,1.360329151E0
2.763540849E1,-1.563367605E0,-1.057894707E0,1.070059299E0
2.765423672E1,-1.735162497E0,-1.563939571E0,8.000607491E-1
2.767306495E1,-1.599198341E0,-1.924620628E0,4.152946472E-1
2.769189313E1,-1.106447935E0,-1.790164709E0,7.880783081E-2
2.771072136E1,-8.847799301E-1,-1.030880928E0,-1.754531860E-1
2.772954953E1,-7.347440720E-1,-9.487733841E-1,-4.533038139E-1
2.774837776E1,-6.675283909E-1,-1.288748264E0,-6.111030579E-1
2.776720594E1,-5.485589504E-1,-1.657927275E0,-4.916028976E-1
2.778603417E1,-7.693793774E-1,-1.819990158E0,-4.298982620E-1
2.780486234E1,-1.003971338E0,-1.843227148E0,-5.009899139E-1
2.782369057E1,-1.152627468E0,-1.669519424E0,-5.322332382E-1
2.784251875E1,-1.003962994E0,-1.421072960E0,-5.097718239E-1
2.786134698E1,-8.358135223E-1,-1.123112679E0,-3.457822800E-1
2.788017516E1,-6.778144836E-1,-8.715157509E-1,-2.493104935E-1
2.789900339E1,-7.079923153E-1,-7.150855064E-1,-2.963843346E-1
2.791783162E1,-6.709496975E-1,-6.532959938E-1,-3.840217590E-1
2.793665979E1,-5.630578995E-1,-4.674763680E-1,-4.183812141E-1
2.795548802E1,-3.234829903E-1,-2.616624832E-1,-3.065886497E-1
2.797431620E1,-1.443235874E-1,-3.578615189E-2,-2.340250015E-1
2.799314443E1,7.882094383E-2,1.839632988E-1,-1.625967026E-1
2.801197260E1,2.416145802E-1,2.581682205E-1,-4.007291794E-2
2.803080083E1,4.295518398E-1,2.785158157E-1,1.639285088E-1
2.804962901E1,6.383903027E-1,2.319884300E-1,3.276739120E-1
2.806845724E1,7.300422192E-1,2.240920067E-1,2.825837135E-1
2.808728542E1,7.452836037E-1,1.102337837E-1,2.459354401E-1
2.810611365E1,8.171763420E-1,-2.894821167E-1,2.041091919E-1
2.812494182E1,1.090080261E0,-8.338470459E-1,3.431844711E-2
2.814377005E1,1.171551704E0,-5.221886635E-1,2.253150940E-2
2.816259823E1,1.094793797E0,1.356091499E-1,-1.174740791E-1
2.818142646E1,9.160771370E-1,6.844277382E-1,-2.725186348E-1
2.820025464E1,7.400536537E-1,9.708509445E-1,-5.135574341E-1
2.821908286E1,3.971922398E-1,1.212232590E0,-4.816894531E-1
2.823791104E1,-9.329080582E-3,6.176390648E-1,-3.672046661E-1
2.825673927E1,-4.201564789E-1,-2.010431290E-1,-1.217212677E-1
2.827556745E1,-9.733171463E-1,-7.635021210E-1,2.897224426E-1
2.829439568E1,-1.948778868E0,-1.364629745E0,7.378158569E-1
2.831321745E1,-3.322587013E0,-2.546995163E0,6.325716972E-1
2.833232234E1,-4.903262615E0,-3.093321562E0,-7.101173401E-1
2.835152677E1,-6.280848980E0,-1.665840864E0,-2.049884796E0
2.837071787E1,-6.962958336E0,-2.544502735E0,-2.707386017E0
2.838993568E1,-7.268411636E0,-4.914500237E0,-3.367180347E0
2.840914016E1,-7.242781162E0,-4.786160946E0,-3.811315060E0
2.842834458E1,-6.818607330E0,-3.494390726E0,-4.104889393E0
2.844737485E1,-5.995710850E0,-1.914655447E0,-3.408582211E0
2.846620302E1,-4.749577522E0,-1.474571228E-2,-1.862513065E0
2.848501813E1,-3.120571613E0,1.233500004E0,-5.543732643E-1
2.850385943E1,-1.551517487E0,2.190570354E0,2.049398422E-1
2.852268766E1,-5.983843803E-1,3.106291294E0,1.031360626E0
2.854151583E1,-2.243113518E-1,3.711990356E0,1.800489902E0
2.856034406E1,1.898946762E-1,3.580363274E0,2.269430161E0
2.857917224E1,1.144644260E0,2.962136745E0,2.136505604E0
2.859800042E1,1.773510933E0,2.492877007E0,1.594736099E0
2.861682865E1,2.033584118E0,2.370692730E0,7.217030525E-1
2.863565682E1,2.489343882E0,2.237366676E0,8.729457855E-3
2.865448505E1,2.864731550E0,1.627012253E0,1.031541824E-2
2.867331323E1,3.063551664E0,1.034737587E0,-3.517775536E-1
2.869214146E1,2.794898272E0,7.562427521E-1,-2.190289497E-1
2.871096964E1,1.739946842E0,4.552268982E-2,8.096694946E-2
2.872979787E1,9.641985893E-1,-8.424043655E-1,-2.046680450E-2
2.874862604E1,1.271200180E-2,-1.470626354E0,-8.885431290E-2
2.876745422E1,-7.435336113E-1,-1.483091116E0,-8.482456207E-3
2.878628245E1,-9.433369637E-1,-7.723355293E-1,4.972124100E-1
2.880511063E1,-7.560715675E-1,-4.292583466E-1,1.027832985E0
2.882393886E1,-4.659333229E-1,-4.871864319E-1,1.589380741E0
2.884276703E1,-2.758870125E-1,-8.219666481E-1,1.674211025E0
2.886159526E1,-3.181443214E-1,-1.094671726E0,1.473259449E0
2.888042344E1,2.966785431E-2,-1.435232162E0,1.375453949E0
2.889925167E1,3.354201317E-1,-1.635428905E0,1.170941830E0
2.891807984E1,4.283981323E-1,-1.879050255E0,7.896385193E-1
2.893690807E1,4.446167946E-1,-2.077932835E0,1.151161194E-1
2.895573625E1,6.796898842E-1,-2.245427847E0,-1.121606827E-1
2.897456443E1,1.030221462E0,-2.273603439E0,-1.777286530E-1
2.899339266E1,1.220152855E0,-2.214966297E0,-1.743297577E-1
2.901222083E1,1.126270771E0,-1.667540312E0,1.438903809E-1
2.903104906E1,1.083759785E0,-1.326011181E0,4.060244560E-1
2.904987724E1,8.904690742E-1,-1.168798685E0,6.667904854E-1
2.906870547E1,7.940082550E-1,-9.318790436E-1,8.605246544E-1
2.908753365E1,7.788500786E-1,-8.871893883E-1,1.457602978E0
2.910636182E1,6.008825302E-1,-6.842164993E-1,1.736903191E0
2.912519005E1,2.662234306E-1,-2.768189907E-1,1.810621738E0
2.914401823E1,3.435945511E-2,-1.934342384E-1,1.846724987E0
2.916284646E1,2.683615685E-1,-7.873728275E-1,1.912298679E0
2.918167464E1,5.256929398E-1,-1.087970972E0,1.640108585E0
2.920050281E1,5.531740189E-1,-6.871581078E-1,1.473314285E0
2.921933104E1,7.416458130E-1,-5.454571247E-1,1.262716770E0
2.923815922E1,1.097907543E0,-3.820793629E-1,8.898382187E-1
2.925698745E1,1.465506077E0,1.234781742E-1,3.961720467E-1
2.927581563E1,1.900760651E0,5.145127773E-1,-2.212591171E-1
2.929464386E1,1.999093056E0,1.080372810E0,-6.358141899E-1
2.931347203E1,2.217421532E0,1.591722965E0,-7.721972466E-1
2.933230021E1,2.428201199E0,1.861391544E0,-1.217609882E0
2.935112844E1,2.840914965E0,1.676952839E0,-1.504181385E0
2.936995662E1,3.341472864E0,1.268368721E0,-1.387613297E0
2.938878485E1,4.203425884E0,6.518716812E-1,-9.431657791E-1
2.940761302E1,5.376015663E0,7.900953293E-2,-1.835856438E-1
2.942644120E1,4.885139465E0,6.892046928E-1,4.748239517E-1
2.944525630E1,2.741482019E0,1.697894573E0,6.557717323E-1
2.946409761E1,2.316298485E-1,2.710102081E0,5.768594742E-1
2.948292583E1,-2.093960762E0,3.392786026E0,9.233307838E-1
2.950174089E1,-3.788236618E0,3.586073875E0,1.110180378E0
2.952058219E1,-4.860999584E0,3.311921120E0,1.005317688E0
2.953941042E1,-5.628349781E0,2.649870396E0,9.237637520E-1
2.955823860E1,-5.576268196E0,1.430364609E0,1.227066517E0
2.957706682E1,-4.450222015E0,4.354581833E-1,1.494524956E0
2.959589500E1,-3.688820839E0,4.618811607E-1,1.918725014E0
2.961472318E1,-2.948012829E0,6.374983788E-1,2.153158665E0
2.963355141E1,-2.739282608E0,9.795126915E-1,2.293733597E0
2.965237958E1,-2.790978909E0,1.055232048E0,2.143346310E0
2.967120781E1,-3.008885860E0,8.462533951E-1,1.754104137E0
2.969003599E1,-3.046796799E0,5.694322586E-1,1.125871181E0
2.970886417E1,-3.024800777E0,6.498794556E-1,6.979742050E-1
2.972769240E1,-2.461953640E0,2.000243664E-1,5.289301872E-1
2.974652057E1,-1.822602749E0,6.705117226E-2,6.781015396E-1
2.976534880E1,-1.270866394E0,9.242272377E-2,8.817520142E-1
2.978417698E1,-8.715095520E-1,1.075716019E-1,1.064345360E0
2.980300521E1,-7.363061905E-1,8.850955963E-2,1.157001495E0
2.982183339E1,-5.957221985E-1,-1.421632767E-1,1.194452286E0
2.984066156E1,-6.180653572E-1,-3.731024265E-1,9.767284393E-1
2.985948979E1,-6.201863289E-1,-1.561789513E-1,4.277830124E-1
2.987831797E1,-3.942484856E-1,2.336933613E-1,-4.656519890E-1
2.989714620E1,2.107491493E-1,6.500332355E-1,-1.391209602E0
2.991597438E1,9.603426456E-1,1.195174336E0,-1.916866779E0
2.993480255E1,1.578412056E0,1.758410931E0,-2.289869785E0
2.995363078E1,2.021221161E0,1.837590456E0,-2.891557693E0
2.997245896E1,2.155033350E0,1.870348334E0,-3.363920689E0
2.999128719E1,2.019448996E0,1.927418709E0,-3.515428066E0
3.001011536E1,1.990084648E0,2.165902615E0,-3.500268459E0
3.002894354E1,1.785172939E0,2.436157465E0,-3.379562855E0
3.004777177E1,1.513295889E0,2.513095140E0,-3.450569630E0
3.006659995E1,1.042250395E0,2.062020302E0,-3.317686081E0
3.008542818E1,1.051532745E0,1.328174829E0,-3.069494247E0
3.010425636E1,1.015888929E0,1.264651775E0,-2.766344547E0
3.012308453E1,1.012781382E0,1.419355035E0,-2.430528641E0
3.014191276E1,9.976272583E-1,1.193605185E0,-2.196544647E0
3.016074094E1,8.485732079E-1,1.144226074E0,-1.848285675E0
3.017956912E1,5.013608932E-1,1.245314956E0,-1.534114361E0
3.019839735E1,1.748023033E-1,1.338576794E0,-1.229392529E0
3.021722552E1,-1.153364182E-1,1.210143924E0,-8.694071770E-1
3.023605375E1,1.645421982E-2,1.085157871E0,-7.181143761E-1
3.025488193E1,9.130287170E-2,1.261887670E0,-7.281274796E-1
3.027371011E1,1.033077240E-1,1.516165853E0,-7.171049118E-1
3.029253833E1,1.354169846E-1,1.502619624E0,-5.565967560E-1
3.031136651E1,1.530613899E-1,1.276260018E0,-2.951383591E-1
3.033019474E1,-6.055688858E-2,9.160430431E-1,-3.371734619E-1
3.034902292E1,-2.119774818E-1,3.563106060E-1,-4.933686256E-1
3.036785110E1,-2.897200584E-1,5.303424597E-1,-2.459573746E-1
3.038667932E1,-5.815730095E-1,8.524312973E-1,-1.642103195E-1
3.040550750E1,-5.366230011E-1,8.120288849E-1,3.157739639E-1
3.042433573E1,-8.120694160E-1,1.996699810E0,1.419124603E0
3.044316391E1,-1.779369831E0,1.248365641E0,1.915131569E0
3.046199214E1,-1.264288902E0,-6.450676918E-1,1.606472969E0
3.048082031E1,-7.219734192E-1,-5.821664333E-1,1.547884941E0
3.049964849E1,-4.157576561E-1,1.209378242E-1,9.618148804E-1
3.051847672E1,-3.645696640E-1,8.548319340E-1,5.810632706E-1
3.053730490E1,1.472058296E-1,9.505019188E-1,9.408283234E-2
3.055613307E1,3.492212296E-1,8.711810112E-1,-2.656469345E-1
3.057496130E1,3.913702965E-1,9.003987312E-1,-2.180194855E-1
3.059378948E1,3.162612915E-1,8.590705395E-1,1.090841293E-1
3.061261766E1,1.425294876E-1,7.593698502E-1,2.722053528E-1
3.063144589E1,-3.638324738E-1,5.156748295E-1,4.365158081E-2
3.065027406E1,-7.992491722E-1,3.840889931E-1,-1.110286713E-1
3.066910229E1,-3.577289581E-1,2.205379009E-1,-2.042980194E-1
3.068793047E1,1.891303062E-1,7.767820358E-2,-8.554458618E-2
3.070675865E1,-4.274392128E-2,-1.829023361E-1,-6.367015839E-1
3.072558688E1,2.190344334E-1,3.172159195E-2,-9.077668190E-1
3.074441505E1,8.298306465E-1,1.551818848E-1,-6.207733154E-1
3.076324328E1,7.176284790E-1,1.411695480E-1,-6.838712692E-1
3.078207146E1,4.713673592E-1,-9.103846550E-2,-8.968119621E-1
3.080089964E1,3.455488682E-1,-1.324150562E-1,-7.635784149E-1
3.081972786E1,4.439911842E-1,-3.009626865E-1,-5.780916214E-1
3.083855604E1,4.746632576E-1,-4.229409695E-1,-3.775749207E-1
3.085738427E1,3.667943478E-1,-3.546488285E-1,-8.440876007E-2
3.087621245E1,4.078583717E-1,-5.750136375E-1,1.247863770E-1
3.089504063E1,3.561315536E-1,-5.798058510E-1,3.528957367E-1
3.091386886E1,1.958799362E-1,-5.642445087E-1,3.752880096E-1
3.093269703E1,-4.648447037E-3,-5.701150894E-1,4.922866821E-1
3.095152521E1,-1.525070667E-1,-6.383507252E-1,4.478015900E-1
3.097035344E1,-2.507746220E-1,-5.412175655E-1,4.475069046E-1
3.098918162E1,-2.799808979E-1,-5.679624081E-1,3.990268707E-1
3.100800979E1,-2.603940964E-1,-6.057703495E-1,3.132286072E-1
3.102683802E1,-2.113113403E-1,-5.745618343E-1,2.444982529E-1
3.104566620E1,-1.816520691E-1,-7.104340792E-1,1.498756409E-1
3.106449438E1,-1.547653675E-1,-9.947606325E-1,6.848144531E-2
3.108332261E1,-2.180235386E-1,-9.606529474E-1,-3.959655762E-3
3.110215078E1,-3.548498154E-1,-8.401336670E-1,-2.063131332E-1
3.112097896E1,-4.127483368E-1,-1.029089332E0,-3.135662079E-1
3.113980719E1,-3.608443737E-1,-1.253214240E0,-2.501363754E-1
3.115863537E1,-3.304626942E-1,-1.618523359E0,-1.220293045E-1
3.117746354E1,-4.274737835E-1,-1.772725582E0,2.724170685E-2
3.119629177E1,-7.049345970E-1,-1.670223713E0,1.494970322E-1
3.121511995E1,-9.368677139E-1,-1.724143505E0,2.349834442E-1
3.123394813E1,-1.034196854E0,-1.736983776E0,4.119958878E-1
3.125277636E1,-1.142572641E0,-1.708826900E0,6.107435226E-1
3.127160453E1,-1.219193220E0,-1.620896101E0,6.357622147E-1
3.129043271E1,-1.394959927E0,-1.547596693E0,4.771280289E-1
3.130926089E1,-1.310889006E0,-1.610542417E0,4.817895889E-1
3.132808912E1,-1.049642086E0,-1.496454358E0,4.269227982E-1
3.134691729E1,-9.711573124E-1,-1.298567176E0,4.263372421E-1
3.136574552E1,-9.030561447E-1,-1.345964789E0,3.130607605E-1
3.138457370E1,-7.714109421E-1,-1.289360762E0,2.118291855E-1
3.140340188E1,-5.893087387E-1,-1.321133852E0,2.748632431E-1
3.142223005E1,-4.795246124E-1,-1.358376622E0,4.001064301E-1
3.144105828E1,-4.095668793E-1,-1.310435534E0,5.659694672E-1
3.145988646E1,-4.059791565E-1,-1.377431035E0,6.070404053E-1
3.147871464E1,-3.525042534E-1,-1.383222580E0,6.276779175E-1
3.149754287E1,-1.731653214E-1,-1.376647711E0,6.071414948E-1
3.151637104E1,-3.304243088E-2,-1.207954645E0,7.318820953E-1
3.153519922E1,1.514754295E-1,-9.319263697E-1,7.928934097E-1
3.155402740E1,1.488904953E-1,-3.450703621E-1,8.766670227E-1
3.157285563E1,3.114414215E-2,-3.717184067E-3,1.021267891E0
3.159168380E1,8.804583549E-2,2.953219414E-2,1.103076935E0
3.161051203E1,2.169864178E-1,3.068907261E-1,1.144943237E0
3.162934021E1,3.314037323E-1,7.081341743E-1,8.734817505E-1
3.164816839E1,4.830129147E-1,1.103138208E0,5.336732864E-1
3.166699656E1,7.549328804E-1,1.647550344E0,2.865619659E-1
3.168582479E1,7.701430321E-1,2.226907015E0,3.009319305E-2
3.170465297E1,5.983979702E-1,1.946191549E0,-4.055747986E-1
3.172348115E1,7.171308994E-1,1.343524933E0,-9.535903931E-1
3.174230938E1,9.172060490E-1,1.203436852E0,-1.462030411E0
3.176113755E1,9.336459637E-1,1.499030352E0,-1.807451248E0
3.177996573E1,8.097803593E-1,1.650756598E0,-1.914267063E0
3.179879396E1,8.157620430E-1,1.581563473E0,-1.642506599E0
3.181762214E1,6.710557938E-1,1.395767212E0,-1.558528900E0
3.183645031E1,2.342491150E-1,1.573142052E0,-1.476331234E0
3.185527854E1,4.533886909E-2,1.693171024E0,-1.270051003E0
3.187410672E1,2.243568897E-1,1.591897488E0,-8.896923065E-1
3.189293495E1,4.849057198E-1,1.468546152E0,-5.638265610E-1
3.191176313E1,6.851272583E-1,1.572912693E0,-3.785800934E-1
3.193059130E1,7.904348373E-1,1.549026489E0,-1.747064590E-1
3.194941953E1,8.342592716E-1,1.528303623E0,2.098083496E-4
3.196824771E1,7.010400295E-1,1.378438473E0,-9.522056580E-2
3.198707589E1,3.398332596E-1,1.313006878E0,-3.281488419E-1
3.200590412E1,1.043415070E-1,1.209750414E0,-5.026979446E-1
3.202473229E1,3.823113441E-2,1.106038094E0,-5.022068024E-1
3.204356047E1,1.869606972E-2,1.004638910E0,-4.153547287E-1
3.206238870E1,-4.747772217E-2,9.290580750E-1,-4.510908127E-1
3.208121688E1,-8.507990837E-2,1.039206266E0,-4.393377304E-1
3.210004510E1,-1.153090000E-1,1.020981312E0,-4.021568298E-1
3.211887328E1,-7.682251930E-2,9.158093929E-1,-2.601890564E-1
3.213770146E1,-2.691936493E-2,8.285183907E-1,-2.389764786E-1
3.215652969E1,-1.282386780E-1,9.411849976E-1,-2.080621719E-1
3.217535786E1,-1.174869537E-1,7.028520107E-1,-1.223850250E-1
3.219418610E1,6.092953682E-2,5.657699108E-1,3.129291534E-2
3.221301427E1,1.564056873E-1,4.453861713E-1,2.628803253E-2
3.223184245E1,-5.141234398E-2,4.561841488E-1,-4.763317108E-2
3.225067068E1,-2.504279613E-1,3.793570995E-1,-1.763200760E-1
3.226949886E1,-4.027428627E-1,3.199322224E-1,-2.513809204E-1
3.228832708E1,-4.356219769E-1,1.278042793E-1,-2.805700302E-1
3.230715526E1,-3.905940056E-1,-3.476977348E-2,-3.031644821E-1
3.232598344E1,-4.317066669E-1,-1.646447182E-2,-2.442741394E-1
3.234481167E1,-4.625966549E-1,-5.532574654E-2,-3.447036743E-1
3.236363984E1,-5.571539402E-1,-1.031522751E-1,-3.711462021E-1
3.238246807E1,-6.792912483E-1,-1.411659718E-1,-3.710289001E-1
3.240129625E1,-6.548449993E-1,-7.714557648E-2,-2.804689407E-1
3.242012448E1,-5.261197090E-1,-4.093027115E-2,-9.334564209E-2
3.243895266E1,-5.183506012E-1,9.195113182E-2,-5.392169952E-2
3.245778083E1,-5.254237652E-1,7.455968857E-2,-2.556037903E-2
3.247660906E1,-4.228706360E-1,1.000356674E-1,-6.687927246E-2
3.249543724E1,-2.520253658E-1,8.805584908E-2,-7.042121887E-2
3.251426547E1,-1.471691132E-1,-3.741025925E-2,-1.398601532E-1
3.253309365E1,-1.906387806E-1,-3.759074211E-2,-2.400550842E-1
3.255192188E1,-3.415272236E-1,9.619879723E-2,-3.367147446E-1
3.257075005E1,-3.995893002E-1,1.273703575E-1,-2.470712662E-1
3.258957828E1,-5.127913952E-1,6.357121468E-2,-1.591367722E-1
3.260840646E1,-5.267589092E-1,-8.291721344E-3,-1.253557205E-1
3.262723464E1,-6.705067158E-1,2.848100662E-2,-1.918640137E-1
3.264606287E1,-6.890678406E-1,2.573843002E-1,-1.483926773E-1
3.266489104E1,-6.713471413E-1,3.029966354E-1,-1.282510757E-1
3.268371927E1,-3.782267570E-1,4.376969337E-1,-3.594112396E-2
3.270254745E1,-1.783058643E-1,5.818402767E-1,-8.487033844E-2
3.272137568E1,-7.059264183E-2,7.705492973E-1,7.953643799E-4
3.274020386E1,9.290146828E-2,7.610666752E-1,5.185222626E-2
3.275903208E1,1.898727417E-1,7.455766201E-1,4.287338257E-2
3.277786026E1,2.785549164E-1,7.035503387E-1,6.101608276E-3
3.279668849E1,3.574829102E-1,7.560894489E-1,-3.360748291E-3
3.281551667E1,4.364459515E-1,8.858935833E-1,-1.068401337E-2
3.283434490E1,4.833681583E-1,1.003333330E0,-2.815055847E-2
3.285317307E1,5.764746666E-1,1.008753538E0,-1.725959778E-2
3.287200125E1,6.735789776E-1,9.852013588E-1,3.709125519E-2
3.289082948E1,7.016506195E-1,9.816203117E-1,-3.271865845E-2
3.290965766E1,7.005186081E-1,1.103464842E0,3.550529480E-3
3.292848589E1,7.083806992E-1,1.163666487E0,4.549121857E-2
3.294731406E1,5.989191532E-1,1.224760771E0,1.351804733E-1
3.296614229E1,4.543802738E-1,1.337766647E0,1.173458099E-1
3.298497047E1,2.593548298E-1,1.422791243E0,6.469726562E-3
3.300379870E1,2.453532219E-1,1.323447704E0,-3.969860077E-2
3.302262688E1,2.884242535E-1,1.417553186E0,2.794075012E-2
3.304145511E1,1.665158272E-1,1.562596083E0,-6.929874420E-2
3.306028328E1,1.723909378E-2,1.622168064E0,-3.149957657E-1
3.307911151E1,7.817745209E-3,1.634395361E0,-6.142997742E-1
3.309793969E1,3.633022308E-2,1.710085392E0,-6.717615128E-1
3.311676792E1,1.978068352E-1,1.707789898E0,-6.837687492E-1
3.313559610E1,3.848030567E-1,1.704343796E0,-8.077530861E-1
3.315442432E1,4.931786060E-1,1.893761635E0,-1.019810677E0
3.317325250E1,5.121574402E-1,2.142607689E0,-1.041132450E0
3.319208073E1,6.759622097E-1,1.943784475E0,-1.166606903E0
3.321090891E1,9.081027508E-1,1.889903545E0,-1.224220276E0
3.322973714E1,1.074092865E0,1.871383905E0,-1.267725945E0
3.324856531E1,1.426263809E0,1.943675995E0,-1.114431381E0
3.326739354E1,1.708995104E0,2.201509714E0,-9.864053726E-1
3.328622172E1,2.049731493E0,2.133145332E0,-9.849233627E-1
3.330504995E1,2.382659912E0,2.277814388E0,-7.811541557E-1
3.332387813E1,2.503148079E0,2.504812241E0,-5.213832855E-1
3.334270636E1,2.476815462E0,2.612867117E0,-1.576972008E-1
3.336153453E1,2.241892576E0,2.391812563E0,3.492321968E-1
3.338036271E1,1.827217340E0,2.005771875E0,8.381447792E-1
3.339919094E1,1.452162266E0,1.463641167E0,1.323343754E0
3.341801912E1,1.041822672E0,1.006624222E0,1.504599094E0
3.343684735E1,3.590531349E-1,9.491777420E-2,1.402765274E0
3.345567552E1,-2.087521553E-1,-1.950135231E-1,1.910815716E0
3.347450375E1,-7.991924286E-1,4.403729439E-1,2.373219013E0
3.349333193E1,-1.404639721E0,7.328076363E-1,2.311747551E0
3.351216016E1,-1.731316090E0,2.935872078E-1,2.057091236E0
3.353098833E1,-1.664190769E0,-1.881113052E-1,1.579433441E0
3.354981656E1,-1.554541588E0,1.724529266E-1,1.446784973E0
3.356864474E1,-1.178986073E0,6.269264221E-2,1.163635731E0
3.358747297E1,-6.538963318E-1,3.145065308E-1,8.825345039E-1
3.360630115E1,-4.481687546E-1,3.504486084E-1,1.774973869E-1
3.362512938E1,-2.808282375E-1,4.304070473E-1,-5.666480064E-1
3.364395755E1,-9.905147552E-2,3.760299683E-1,-1.121167660E0
3.366278573E1,1.045973301E-1,5.226635933E-1,-1.536853790E0
3.368161396E1,-7.574152946E-2,8.099603653E-1,-1.880602837E0
3.370044214E1,-1.961607933E-1,7.286934853E-1,-2.310541153E0
3.371927036E1,-2.082805634E-1,8.488655090E-1,-2.329380035E0
3.373809854E1,-1.582112312E-1,6.188235283E-1,-1.930942535E0
3.375692677E1,-1.159665585E-1,2.908830643E-1,-1.546385288E0
3.377575495E1,-5.428047180E-1,2.579209805E-1,-9.802088737E-1
3.379458313E1,-1.014076710E0,4.013421535E-1,-6.327910423E-1
3.381341136E1,-1.280944824E0,2.857334614E-1,-6.477923393E-1
3.383223953E1,-1.326498985E0,1.204488277E-1,-7.121658325E-1
3.385106776E1,-1.073233843E0,8.454251289E-2,-7.413969040E-1
3.386989594E1,-6.301772594E-1,8.265638351E-1,-5.998897552E-1
3.388872417E1,-3.668797016E-1,9.223318100E-1,-9.289860725E-1
3.390755234E1,8.018827438E-2,1.102340698E0,-8.205194473E-1
3.392638052E1,3.408274651E-1,7.478280067E-1,-8.028640747E-1
3.394520875E1,4.310367107E-1,4.632582664E-1,-8.607139587E-1
3.396403693E1,4.962043762E-1,4.958295822E-2,-1.251085281E0
3.398286516E1,4.925997257E-1,3.135247231E-1,-1.568182945E0
3.400169333E1,4.826469421E-1,5.810709000E-1,-2.069530487E0
3.402052156E1,4.779616594E-1,9.176840782E-1,-2.289022923E0
3.403934974E1,4.580062628E-1,1.162104130E0,-2.183217525E0
3.405817792E1,2.607049942E-1,1.200692654E0,-2.360301971E0
3.407700615E1,-1.697490215E-1,1.263360500E0,-2.389013767E0
3.409583432E1,-5.791788101E-1,1.360862255E0,-2.104211330E0
3.411466255E1,-7.869842052E-1,1.210102081E0,-1.757583618E0
3.413349073E1,-9.123792648E-1,1.257569313E0,-1.121385098E0
3.415231896E1,-1.036710024E0,1.048326492E0,-6.405100822E-1
3.417114714E1,-1.378695011E0,1.221697330E0,-1.600131989E-1
3.418997536E1,-1.941610813E0,1.294894695E0,1.503925323E-1
3.420880354E1,-2.442930222E0,1.134666443E0,5.232238770E-2
3.422763177E1,-2.830899477E0,1.052042961E0,5.632686615E-2
3.424645995E1,-2.676046371E0,6.753878593E-1,3.062925339E-1
3.426528813E1,-2.274321556E0,6.760568619E-1,6.378870010E-1
3.428411636E1,-2.037341595E0,7.661757469E-1,7.110872269E-1
3.430294453E1,-2.074808359E0,7.334613800E-1,6.697435379E-1
3.432177276E1,-2.225587368E0,7.954053879E-1,6.301145554E-1
3.434060094E1,-2.633843184E0,1.182435513E0,5.461454391E-1
3.435942917E1,-3.168619633E0,1.176914692E0,4.395647049E-1
3.437825734E1,-3.463434935E0,6.723995209E-1,6.271972656E-1
3.439708557E1,-3.446494341E0,-2.917504311E-1,7.634410858E-1
3.441591375E1,-3.136713743E0,-1.308594704E0,6.365537643E-1
3.443474193E1,-2.724396944E0,-1.721018076E0,4.685993195E-1
3.445357016E1,-2.343559504E0,-2.178396225E0,-1.526899338E-1
3.447239833E1,-2.069334507E0,-2.341109037E0,-8.658165932E-1
3.449122656E1,-1.490092516E0,-1.862483978E0,-1.364326477E0
3.451005474E1,-1.130002022E0,-1.077983618E0,-1.634748459E0
3.452888297E1,-8.462715149E-1,-9.310109615E-1,-1.855816364E0
3.454771115E1,-5.285413265E-1,-1.140825272E0,-1.930558205E0
3.456653932E1,-3.886451721E-1,-1.024896860E0,-1.670969009E0
3.458536755E1,-6.210451126E-1,-8.736460209E-1,-1.515784264E0
3.460419573E1,-8.935492039E-1,-6.418168545E-1,-1.400540829E0
3.462302391E1,-1.115810156E0,-7.107338905E-1,-1.415994167E0
3.464185214E1,-1.233093739E0,-8.277325630E-1,-1.217293739E0
3.466068031E1,-1.198884726E0,-9.318022728E-1,-7.705702782E-1
3.467950849E1,-1.215247393E0,-9.245736599E-1,-6.611633301E-2
3.469833672E1,-1.228696346E0,-6.674680710E-1,7.063684464E-1
3.471716490E1,-1.387454510E0,-5.323855877E-1,9.552850723E-1
3.473599313E1,-1.482450962E0,-7.037689686E-1,7.994613647E-1
3.475482130E1,-1.287178755E0,-6.332383156E-1,5.963335037E-1
3.477364948E1,-8.069164753E-1,-2.784128189E-1,6.079549789E-1
3.479247771E1,-1.545090675E-1,-5.199782848E-1,5.409221649E-1
3.481130589E1,1.263546944E-1,-7.475016117E-1,4.090719223E-1
3.483013412E1,5.237817764E-3,-9.038100243E-1,9.289264679E-2
3.484896229E1,-3.473408222E-1,-1.033124685E0,-3.382716179E-1
3.486779047E1,-7.392632961E-1,-1.061434507E0,-9.312596321E-1
3.488661870E1,-9.623320103E-1,-8.551654816E-1,-1.454523563E0
3.490544688E1,-1.251079082E0,-8.990709782E-1,-1.681967735E0
3.492427505E1,-1.477421045E0,-1.127794743E0,-1.864659309E0
3.494310328E1,-1.510810375E0,-1.136439323E0,-1.676518917E0
3.496193146E1,-1.355678082E0,-1.015325546E0,-1.413671017E0
3.498075964E1,-1.544663191E0,-9.170753956E-1,-1.158853054E0
3.499958786E1,-1.922859192E0,-8.274698257E-2,-1.024813652E0
3.501841604E1,-2.342554808E0,1.515511036E0,-5.421576500E-1
3.503724427E1,-2.822537661E0,9.049134254E-1,1.060400009E-1
3.505607245E1,-3.290280819E0,-1.479486465E0,4.510288239E-1
3.507490063E1,-3.724895239E0,-2.674988031E0,5.250267982E-1
3.509372880E1,-4.082198143E0,-2.978164434E0,1.853299141E-1
3.511255703E1,-3.955049753E0,-2.511979818E0,-4.235811234E-1
3.513138521E1,-2.972642183E0,-1.287375927E0,-4.150733948E-1
3.515021344E1,-1.841081619E0,-8.366703987E-1,-2.679843903E-1
3.516904162E1,-7.725770473E-1,-8.877677917E-1,-1.287050247E-1
3.518786979E1,-3.766753674E-1,-8.248138428E-1,-1.571278572E-1
3.520669797E1,-8.241865635E-1,-6.773056984E-1,-4.430961609E-1
3.522552620E1,-1.461840630E0,-5.794477463E-1,-7.686042786E-1
3.524435438E1,-1.695744276E0,-7.309546471E-1,-6.405353546E-1
3.526318255E1,-1.461557150E0,-9.697976112E-1,-2.838778496E-1
3.528201078E1,-1.385285139E0,-1.169946194E0,-5.749940872E-2
3.530083896E1,-1.440399885E0,-1.253501892E0,-9.732246399E-3
3.531966714E1,-1.817662954E0,-1.208200455E0,2.180051804E-2
3.533849536E1,-2.264084816E0,-1.176130772E0,-5.603408813E-2
3.535732354E1,-2.636708498E0,-1.484989166E0,-1.526236534E-1
3.537615172E1,-2.966787338E0,-1.582624912E0,-3.797216415E-1
3.539497990E1,-3.165804625E0,-1.573351860E0,-4.970154762E-1
3.541380813E1,-3.155147791E0,-1.427713871E0,-6.297764778E-1
3.543263630E1,-3.114692926E0,-1.199822903E0,-5.074286461E-1
3.545146448E1,-3.038380861E0,-1.063327789E0,-4.523911476E-1
3.547029271E1,-3.105893135E0,-9.399509430E-1,-6.210846901E-1
3.548912089E1,-3.051198959E0,-6.347398758E-1,-7.043862343E-1
3.550794906E1,-2.778259754E0,-1.481347084E-1,-6.422472000E-1
3.552677729E1,-2.359317303E0,1.781897545E-1,-6.023731232E-1
3.554560547E1,-1.909663677E0,4.435596466E-1,-2.039322853E-1
3.556443365E1,-1.629928589E0,9.325895309E-1,3.703212738E-1
3.558326188E1,-1.604711533E0,6.572618484E-1,5.709123611E-1
3.560209005E1,-1.764705181E0,8.564906120E-1,-1.859350204E-1
3.562091823E1,-1.602960110E0,2.341087341E0,-5.655813217E-1
3.563974641E1,-1.112719536E0,2.944684982E0,-3.475928307E-1
3.565857464E1,-2.980408669E-1,2.777399063E0,6.142616272E-3
3.567740281E1,7.652335167E-1,2.433493137E0,2.675127983E-1
3.569623099E1,1.405103207E0,2.128959179E0,2.795181274E-1
3.571505922E1,1.545051575E0,1.620535374E0,-4.945278168E-3
3.573388740E1,1.669523716E0,1.139293194E0,-3.222174644E-1
3.575271557E1,1.713594913E0,1.239224434E0,-5.349550247E-1
3.577154375E1,1.579602718E0,1.649492264E0,-5.296831131E-1
3.579037198E1,1.739172935E0,1.912241459E0,-2.564587593E-1
3.580920016E1,2.166654348E0,1.908718109E0,-3.225502968E-1
3.582802833E1,2.316668987E0,1.705911160E0,-1.805925369E-2
3.584685651E1,2.288684368E0,1.517151356E0,3.074412346E-1
3.586568474E1,1.864066124E0,1.346739292E0,2.351169586E-1
3.588451292E1,1.533975601E0,9.479527473E-1,-9.081649780E-2
3.590334110E1,1.727654457E0,7.321748734E-1,-1.165599823E-1
3.592216932E1,2.312250137E0,6.969575882E-1,-1.145520210E-1
3.594099750E1,2.937765598E0,5.276284218E-1,-1.438660622E-1
3.595982568E1,3.345829010E0,4.515461922E-1,-1.420798302E-1
3.597865386E1,3.347498655E0,6.764297485E-1,1.779994965E-1
3.599748208E1,2.950640440E0,7.439517975E-1,4.422187805E-1
3.601631026E1,2.453756809E0,5.275778770E-1,4.401102066E-1
3.603513844E1,1.994021416E0,5.830593109E-1,2.427010536E-1
3.605396662E1,1.703176498E0,6.845021248E-1,2.539429665E-1
3.607279485E1,1.474418640E0,8.488597870E-1,2.592606544E-1
3.609162302E1,1.432760239E0,1.006506920E0,5.469532013E-1
3.611045120E1,1.184916019E0,1.179740906E0,1.069510460E0
3.612927943E1,8.491640091E-1,1.016843796E0,1.924801826E0
3.614810760E1,7.173628807E-1,4.312863350E-1,2.273346424E0
3.616693578E1,-2.151250839E-2,2.907958031E-1,2.452305317E0
3.618576396E1,-1.077945709E0,4.889621735E-1,2.336934566E0
3.620459219E1,-2.114059448E0,5.545721054E-1,2.137584209E0
3.622342036E1,-3.285638332E0,4.404873848E-1,2.432311535E0
3.624224854E1,-3.906416893E0,3.871316910E-1,2.534859657E0
3.626107677E1,-4.304360867E0,5.593171120E-1,2.258436680E0
3.627990495E1,-4.603240013E0,5.689697266E-1,2.000205517E0
3.629873313E1,-4.348590374E0,4.451370239E-1,1.541529179E0
3.631756136E1,-3.771903515E0,5.048837662E-1,1.221639633E0
3.633638953E1,-3.226817608E0,8.400647640E-1,8.164553642E-1
3.635521771E1,-2.688570023E0,9.341387749E-1,5.855479240E-1
3.637404589E1,-1.987768650E0,6.631815434E-1,3.102827072E-1
3.639287412E1,-1.415828705E0,6.435773373E-1,1.579523087E-2
3.641170229E1,-1.030755997E0,4.224350452E-1,-1.353712082E-1
3.643053047E1,-4.006152153E-1,-2.869961262E-1,-2.967829704E-1
3.644935865E1,2.464914322E-1,-3.570492268E-1,-5.538625717E-1
3.646818688E1,4.039912224E-1,5.474784374E-1,-4.590501785E-1
3.648701505E1,4.004178047E-1,1.004646301E0,-7.456398010E-1
3.650584323E1,7.114434242E-1,8.333261013E-1,-1.209767342E0
3.652467146E1,1.379737377E0,8.953512907E-1,-1.570066929E0
3.654349964E1,1.844590425E0,1.634017706E0,-1.958444595E0
3.656232781E1,1.837317228E0,2.555373192E0,-2.225941181E0
3.658115604E1,1.828396797E0,2.750721931E0,-2.656908989E0
3.659998422E1,1.863610983E0,2.431918144E0,-2.571495056E0
3.661881240E1,1.856331348E0,1.843363047E0,-2.525455475E0
3.663764063E1,1.773733616E0,1.060175776E0,-2.443168163E0
3.665646880E1,1.690383434E0,9.532337189E-1,-2.299948692E0
3.667529698E1,1.441661358E0,1.222226501E0,-2.116765499E0
3.669412516E1,1.351922035E0,1.183647633E0,-1.957248688E0
3.671295339E1,1.377399921E0,1.310658813E0,-1.670648575E0
3.673178156E1,1.047867298E0,1.664156318E0,-1.454138756E0
3.675060974E1,6.191906929E-1,1.346374393E0,-1.729702473E0
3.676943797E1,4.165077209E-1,1.002433538E0,-1.748262882E0
3.678826615E1,2.147865295E-1,1.286639929E0,-1.359835625E0
3.680709432E1,2.407217026E-2,1.080517054E0,-7.700195312E-1
3.682592255E1,4.829354286E-1,9.851444960E-1,-3.209018707E-1
3.684475073E1,6.037139893E-1,1.108958483E0,-5.562686920E-2
3.686357891E1,7.623329163E-1,1.099135041E0,1.748113632E-1
3.688240714E1,8.342652321E-1,1.233876228E0,3.827886581E-1
3.690123531E1,6.567778587E-1,1.388770938E0,6.079545021E-1
3.692006349E1,5.002017021E-1,1.363906145E0,9.496536255E-1
3.693889172E1,6.289105415E-1,7.689980268E-1,8.153281212E-1
3.695771990E1,6.059241295E-1,5.308098793E-1,6.619391441E-1
3.697654807E1,3.691620827E-1,6.748261452E-1,4.249200821E-1
3.699537625E1,1.969957352E-1,5.809201002E-1,3.164148331E-2
3.701420448E1,3.760781288E-1,3.633283377E-1,-3.497896194E-1
3.703303266E1,7.352762222E-1,2.536146641E-1,-4.757623672E-1
3.705186083E1,1.057870388E0,4.722063541E-1,-5.237922668E-1
3.707068906E1,1.107614040E0,8.411831856E-1,-2.578110695E-1
3.708951724E1,8.404283524E-1,7.900695801E-1,-1.562590599E-1
3.710834542E1,4.971637726E-1,4.812855721E-1,4.103231430E-2
3.712717365E1,9.663248062E-2,1.637530327E-1,2.221937180E-1
3.714600182E1,-2.819375992E-1,8.109068871E-2,2.543830872E-1
3.716483000E1,-4.249477386E-1,2.998676300E-1,5.186820030E-1
3.718365823E1,-2.375006676E-1,3.859031200E-1,6.049757004E-1
3.720248641E1,2.746438980E-2,4.318323135E-1,5.664696693E-1
3.722131458E1,2.484593391E-1,5.689759254E-1,4.368181229E-1
3.724014281E1,2.768549919E-1,5.004096031E-1,2.204122543E-1
3.725897099E1,3.793172836E-1,3.224899769E-1,-1.097345352E-2
3.727779917E1,4.238748550E-1,3.362796307E-1,-2.402067184E-2
3.729662735E1,3.378152847E-1,3.475351334E-1,-5.189895630E-2
3.731545557E1,3.711647987E-1,2.022509575E-1,-6.124067307E-2
3.733428375E1,3.628692627E-1,6.042313576E-2,8.887004852E-2
3.735311193E1,4.412288666E-1,-1.803112030E-2,2.321205139E-1
3.737194016E1,4.632329941E-1,2.957296371E-2,4.977922440E-1
3.739076833E1,3.453040123E-1,2.485232353E-1,4.493746758E-1
3.740959651E1,-1.396894455E-2,2.681605816E-1,4.463081360E-1
3.742842469E1,-9.141445160E-3,5.333709717E-2,4.999370575E-1
3.744725292E1,2.586317062E-2,6.228637695E-2,5.663118362E-1
3.746608110E1,4.525470734E-2,-6.447458267E-2,4.915199280E-1
3.748490927E1,1.286239624E-1,-1.194577217E-1,1.859250069E-1
3.750373750E1,1.647028923E-1,-2.255370617E-1,2.331161499E-2
3.752256568E1,2.220144272E-1,-1.092622280E-1,-5.798244476E-2
3.754139386E1,1.264219284E-1,-1.702458858E-1,-2.235422134E-1
3.756022203E1,4.295825958E-3,-3.069536686E-1,-2.872853279E-1
3.757905026E1,-5.012416840E-2,-5.401294231E-1,-3.155283928E-1
3.759787844E1,-1.722788811E-1,-5.146417618E-1,-3.065996170E-1
3.761670667E1,-3.673758507E-1,-4.360115528E-1,-1.463432312E-1
3.763553484E1,-5.779347420E-1,-3.947682381E-1,-7.352018356E-2
3.765436302E1,-9.089469910E-1,-3.233165741E-1,1.089763641E-2
3.767319120E1,-1.214673996E0,-3.371052742E-1,-1.484737396E-1
3.769201943E1,-1.440062523E0,-3.311388493E-1,-3.842053413E-1
3.771084761E1,-1.448017597E0,-7.390904427E-2,-3.494372368E-1
3.772967578E1,-1.269548416E0,1.358056068E-2,-2.572360039E-1
3.774850401E1,-1.078342438E0,-1.056644917E-1,-1.827645302E-1
3.776733219E1,-9.078469276E-1,-1.927196980E-1,-2.238268852E-1
3.778616036E1,-7.213191986E-1,-1.241519451E-1,-4.160037041E-1
3.780498860E1,-7.113051414E-1,-3.608250618E-2,-3.975820541E-1
3.782381677E1,-5.674118996E-1,-2.813501358E-1,-1.606030464E-1
3.784264495E1,-6.501173973E-1,-5.464265347E-1,6.176137924E-2
3.786147318E1,-7.142491341E-1,-7.599473000E-1,2.308030128E-1
3.788030136E1,-1.209563732E0,3.883073330E-1,5.540657043E-1
3.789912953E1,-1.958628654E0,1.862645149E-1,6.125411987E-1
3.791795771E1,-1.867640495E0,-6.143267155E-1,4.350361824E-1
3.793678594E1,-1.630880833E0,-4.415171146E-1,2.424111366E-1
3.795561412E1,-1.537501812E0,-1.800107956E-2,-3.041696548E-2
3.797444229E1,-1.289366722E0,-1.856539249E-1,-3.350801468E-1
3.799327052E1,-6.365146637E-1,-3.987131119E-1,-3.097667694E-1
3.801209870E1,-2.581586838E-1,-1.127474308E-1,-4.658641815E-1
3.803092693E1,-3.369426727E-1,-7.345747948E-2,-8.700270653E-1
