"Time (s)","Linear Acceleration x (m/s^2)","Linear Acceleration y (m/s^2)","Linear Acceleration z (m/s^2)"
1.567798760E-1,3.079786301E-1,1.612768173E-1,3.696165085E-1
1.755994600E-1,-9.426822662E-1,1.871776581E-2,-1.783719063E-1
1.947007100E-1,-2.168643475E0,-1.153106689E-1,-8.784489632E-1
2.139032620E-1,-2.042054176E0,-3.599863052E-1,-9.809796810E-1
2.331058140E-1,-1.557266951E0,-4.344077110E-1,-8.152318001E-1
2.523083140E-1,-1.099925280E0,-1.534309387E-1,-6.331896782E-1
2.715108660E-1,-4.200615883E-1,2.488517761E-2,-6.915154457E-1
2.907134180E-1,4.358167648E-1,1.477651596E-1,-9.337472916E-1
3.097435220E-1,1.361933589E0,2.026348114E-1,-1.083971977E0
3.285698240E-1,2.455814600E0,8.530426025E-2,-1.173818827E0
3.473961260E-1,3.455960035E0,-8.151245117E-2,-1.294808149E0
3.662223760E-1,4.008173943E0,-8.551311493E-2,-1.580812931E0
3.850486780E-1,4.046386242E0,1.541242599E-1,-1.823596239E0
4.038749800E-1,3.700539351E0,5.168352127E-1,-2.032292128E0
4.227012820E-1,3.165830612E0,8.420381546E-1,-2.033970118E0
4.415275850E-1,2.675046444E0,9.550218582E-1,-1.873296499E0
4.603538870E-1,2.110034466E0,1.207555771E0,-1.511501789E0
4.791801370E-1,1.092392325E0,1.928400993E0,-1.180598497E0
4.980064390E-1,-1.647119522E-1,1.884737015E0,-1.468073368E0
5.168327410E-1,-9.555058479E-1,8.737869263E-1,-1.938033342E0
5.356590430E-1,-1.026411533E0,1.084423065E-2,-2.048444748E0
5.544853450E-1,-6.229801178E-1,-2.005300522E-1,-1.529478073E0
5.733116470E-1,-5.086817741E-1,1.980028152E-1,-1.280490637E0
5.921379490E-1,-1.301722288E0,8.700246811E-1,-1.476594687E0
6.109641990E-1,-2.342104197E0,5.452804565E-1,-1.907379866E0
6.297905010E-1,-2.318196774E0,-4.520854950E-1,-1.676373959E0
6.486168030E-1,-1.778517246E0,-1.928768158E-1,-1.366261959E0
6.674431050E-1,-1.614932299E0,4.947185516E-1,-1.207292557E0
6.862694070E-1,-1.999587774E0,7.539405823E-1,-1.015902758E0
7.050957100E-1,-2.807905197E0,9.352931976E-1,-1.190914631E0
7.239220120E-1,-3.361722946E0,4.829549789E-1,-1.482811451E0
7.427483140E-1,-3.622737646E0,-1.441431046E-1,-1.862051249E0
7.615746160E-1,-3.569829941E0,-5.925707817E-1,-1.863510847E0
7.804009180E-1,-3.140416384E0,-5.023612976E-1,-1.512550116E0
7.992271680E-1,-2.762008429E0,7.326316833E-2,-1.272842407E0
8.180534700E-1,-2.505363941E0,1.783504486E-1,-1.311126947E0
8.368797720E-1,-2.139494419E0,-9.939861298E-2,-1.200269461E0
8.557060740E-1,-1.676405191E0,7.748508453E-2,-1.217651606E0
8.745323760E-1,-1.218580008E0,8.962821960E-2,-1.269803286E0
8.933586780E-1,-8.240439892E-1,2.549047470E-1,-1.071467400E0
9.121849800E-1,-3.263902664E-1,1.117846489E0,-1.877707243E0
9.310112820E-1,5.627839565E-1,9.537620544E-1,-3.827274561E0
9.498375850E-1,1.451786637E0,1.533528328E0,-2.609697580E0
9.686507620E-1,2.513408899E0,2.085467339E0,8.855895996E-1
9.874901890E-1,2.409070015E0,1.514051437E0,2.665972710E0
1.006316439E0,1.685210228E0,1.549940109E-1,1.666052580E0
1.025142741E0,8.229620457E-1,-6.629037857E-1,6.519219875E-1
1.043969043E0,-2.975075245E-1,-1.331834793E-1,-9.755048752E-1
1.062795345E0,-9.631283283E-1,-1.368017197E-1,-1.660423875E0
1.081621647E0,-9.754414558E-1,-4.062271118E-2,-8.275134563E-1
1.100447949E0,-1.691079140E-1,3.054428101E-1,-2.183716297E-1
1.119274251E0,7.470357418E-1,2.401103973E-1,-5.238797665E-1
1.138100553E0,5.058128834E-1,1.517295837E-1,-7.195115089E-1
1.156926855E0,-6.273229122E-1,-6.651115417E-2,-9.562337399E-1
1.175753157E0,-1.292798042E0,-1.561460495E-1,-5.150101185E-1
1.194579460E0,-5.717117786E-1,3.342704773E-1,6.819667816E-1
1.213405762E0,4.272089005E-1,8.795452118E-2,3.745455742E-1
1.232232064E0,-8.520791531E-1,7.451534271E-2,-1.045628786E0
1.251058366E0,-2.000470161E0,1.801805496E-1,-1.500620127E0
1.269884668E0,-9.187405109E-1,7.161693573E-1,-8.102948666E-1
1.288710970E0,4.739277363E-1,8.018274307E-1,1.524472237E-1
1.307537272E0,8.057348728E-1,2.461967468E-1,3.619337082E-2
1.326363574E0,9.099221230E-1,4.911355972E-1,-1.849687099E0
1.345189876E0,3.665227890E-1,9.160633087E-1,-1.572061539E0
1.364003105E0,3.638720512E-1,1.177619934E0,1.514121532E0
1.382842480E0,1.238480806E0,4.419803619E-1,1.679956913E0
1.401668782E0,2.028753757E-1,5.867166519E-1,1.498688459E0
1.420495085E0,-1.194399357E0,7.205190659E-1,7.510473728E-1
1.439321387E0,-1.745794535E0,5.674076080E-1,8.596706390E-2
1.458147741E0,-1.357474089E0,8.333415985E-1,6.069889069E-1
1.476974043E0,-7.947385311E-1,6.751661301E-1,8.108236790E-1
1.495800345E0,-3.777561188E-1,4.223241806E-1,3.576071262E-1
1.514626647E0,-2.589654922E-1,5.052022934E-1,-6.343119144E-1
1.533452949E0,-3.281617165E-1,5.849637985E-1,-3.842763901E-1
1.552279251E0,3.694508076E-1,9.946727753E-1,5.789425373E-1
1.571105553E0,1.012203693E0,1.514805794E0,4.226212502E-1
1.589931855E0,2.580826283E-1,1.234728813E0,-7.827262878E-1
1.608758157E0,-1.360943317E0,5.567579269E-1,-2.185003757E0
1.627584460E0,-2.418710709E0,-3.743457794E-2,-3.573794127E0
1.646410762E0,-2.695849895E0,-3.144598007E-1,-4.919601917E0
1.665237064E0,-2.005744219E0,-9.054560661E-1,-5.622399807E0
1.684063366E0,-8.231701851E-1,-5.909514427E-1,-6.491794586E0
1.702876543E0,4.370260239E-1,-8.946485519E-1,-6.919605255E0
1.721715970E0,1.766872883E0,-1.383267403E0,-4.883193016E0
1.740542272E0,2.009522915E0,7.853126526E-2,-3.647878647E0
1.759355449E0,1.491539001E0,3.283576965E-1,-2.220411062E0
1.778194876E0,1.363219976E0,5.224361420E-1,-8.387589455E-1
1.797021178E0,1.466316938E0,2.736959457E-1,-2.579531670E-1
1.815847480E0,9.263011217E-1,-2.335462570E-1,1.218841076E-1
1.834673782E0,4.067578316E-1,-5.177659988E-1,-3.369252682E-1
1.853500085E0,-7.835550308E-1,-5.218505859E-3,-1.008574009E0
1.872313314E0,-2.375526667E0,-2.884101868E-2,-2.017198086E0
1.891152741E0,-3.283497095E0,1.926765442E-1,-1.905983329E0
1.909978991E0,-2.438301325E0,4.422273636E-1,-2.096941471E-1
1.928792220E0,-6.690261364E-1,5.141181946E-1,1.012557745E0
1.947631647E0,6.239064932E-1,8.181133270E-1,1.679647923E0
1.966457949E0,7.013376951E-1,1.121564865E0,1.499512434E0
1.985284251E0,1.578259468E-2,8.499145508E-1,8.558998108E-1
2.004110553E0,-3.045382500E-1,7.036066055E-1,6.739578247E-1
2.022936855E0,1.633317471E-1,2.835264206E-1,5.832984447E-1
2.041763157E0,5.279424191E-1,5.285453796E-2,3.290867805E-1
2.060589460E0,2.362842560E-1,1.824541092E-1,-2.390222549E-1
2.079415762E0,2.602162361E-1,2.594861984E-1,-6.992737055E-1
2.098242116E0,9.698551893E-1,4.334812164E-1,-5.107498169E-1
2.117068418E0,1.719637156E0,4.752025604E-1,-6.456375122E-2
2.135894720E0,2.107006550E0,9.400606155E-1,2.775137424E-1
2.154721022E0,1.652497768E0,1.054147720E0,8.472204208E-3
2.173547324E0,8.126865625E-1,9.188804626E-1,-1.237830639E0
2.192373626E0,3.756595850E-1,1.062635422E0,-1.968778133E0
2.211199928E0,5.428087711E-1,1.218205452E0,-1.719602466E0
2.230026230E0,9.823790789E-1,1.184002876E0,-1.148501515E0
2.248852585E0,1.182174683E0,1.071583748E0,-1.051821709E0
2.267678887E0,1.035063386E0,7.792692184E-1,-1.362842441E0
2.286505189E0,7.494350672E-1,3.038721085E-1,-1.529306889E0
2.305331491E0,2.821829319E-1,-1.767730713E-2,-1.560912490E0
2.324157793E0,-6.923866272E-2,-1.576938629E-1,-1.656526446E0
2.342984095E0,-1.369178295E-1,-4.439754486E-1,-1.726956844E0
2.361810397E0,-2.392303944E-1,-5.604219437E-1,-1.709018111E0
2.380636751E0,-3.045202494E-1,-3.980369568E-1,-1.651614428E0
2.399463053E0,-4.767664671E-1,-3.247652054E-1,-1.376163602E0
2.418289355E0,-5.720881224E-1,-7.394123077E-2,-9.420800209E-1
2.437115657E0,-3.015505075E-1,5.833435059E-2,-4.651482105E-1
2.455941960E0,-5.698919296E-3,1.965417862E-1,1.249742508E-2
2.474768314E0,7.808208466E-3,2.477388382E-1,2.608048916E-1
2.493594616E0,-1.169394255E-1,2.844533920E-1,5.746862888E-1
2.512420918E0,-4.002441168E-1,1.036396027E-1,7.318751812E-1
2.531247220E0,-7.751550674E-1,-1.702728271E-1,7.469379902E-1
2.550073522E0,-1.037415147E0,-2.417612076E-1,7.075865269E-1
2.568899824E0,-1.263314724E0,-3.644943237E-3,7.575545311E-1
2.587726178E0,-1.807586432E0,3.344011307E-1,5.054826736E-1
2.606552480E0,-2.487412214E0,5.789899826E-1,1.387596130E-1
2.625378782E0,-2.635060787E0,6.551570892E-1,-1.635870934E-1
2.644205085E0,-2.468640566E0,5.780715942E-1,-3.527011871E-1
2.663031387E0,-2.311136007E0,7.111253738E-1,-4.010317326E-1
2.681857741E0,-2.079005241E0,8.845167160E-1,-7.596733570E-1
2.700684043E0,-1.908190250E0,1.013138771E0,-1.100628376E0
2.719510345E0,-1.756985426E0,1.017092705E0,-1.272262096E0
2.738336647E0,-1.564963579E0,1.076068878E0,-1.368158698E0
2.757163001E0,-1.212318659E0,8.423824310E-1,-1.260649443E0
2.775989303E0,-7.594468594E-1,1.654701233E-1,-1.154784679E0
2.794815605E0,-3.061580658E-1,-9.074821472E-1,-1.088739395E0
2.813641907E0,5.637669563E-2,-1.695312023E0,-1.243085742E0
2.832468262E0,2.276134491E-1,-1.806692123E0,-1.237556577E0
2.851294564E0,2.404940128E-1,-1.383858681E0,-1.364012241E0
2.870120866E0,1.760900021E-1,-7.758073807E-1,-1.501937866E0
2.888947168E0,3.065798283E-1,-2.731599808E-1,-1.344836712E0
2.907773522E0,5.707784891E-1,2.502012253E-1,-1.248895288E0
2.926599824E0,5.275349617E-1,3.574085236E-1,-1.463756561E0
2.945426126E0,1.354691982E-1,4.779348373E-1,-1.185604453E0
2.964252428E0,-3.920769691E-2,4.629430771E-1,-1.046593189E0
2.983078782E0,-3.468656540E-1,5.288391113E-1,-1.122453928E0
3.001905085E0,-6.074502468E-1,9.872531891E-2,-6.889712811E-1
3.020731387E0,-5.426483154E-1,9.183692932E-2,-9.451937675E-2
3.039557741E0,-1.801290512E-1,1.490488052E-1,1.308279037E-1
3.058384043E0,-7.441926003E-2,7.979106903E-2,2.551147938E-1
3.077210345E0,4.435086250E-2,-1.662092209E-1,2.784092426E-1
3.096036647E0,3.511793613E-1,-2.505474091E-1,6.859254837E-2
3.114863001E0,5.238742828E-1,-2.441682816E-1,2.302336693E-2
3.133689303E0,5.863494873E-1,-4.162025452E-1,2.964520454E-2
3.152515605E0,4.812388420E-1,-9.289741516E-3,3.074958324E-1
3.171341960E0,7.252335548E-1,2.066698074E-1,7.614305019E-1
3.190168262E0,5.267267227E-1,7.773342133E-1,9.727120399E-1
3.208994564E0,5.677611828E-1,4.703750610E-1,8.936052322E-1
3.227820918E0,9.259727001E-1,1.462421417E-1,1.056558371E0
3.246647220E0,9.354207516E-1,3.254566193E-1,1.588839769E0
3.265473522E0,7.170369625E-1,9.694776535E-1,2.030104160E0
3.284299876E0,5.634949207E-1,1.203309059E0,2.173625231E0
3.303126178E0,3.687384129E-1,1.076420784E0,1.937070608E0
3.321952480E0,-8.260488510E-2,1.096074104E0,1.132811546E0
3.340778835E0,-8.455038071E-1,1.374458313E0,8.483810425E-1
3.359605137E0,-1.207992554E0,1.027614594E0,7.567987442E-1
3.378431439E0,-1.115109205E0,8.403472900E-1,3.538484573E-1
3.397257793E0,-1.237360001E0,5.612659454E-1,8.440494537E-3
3.416084095E0,-1.622199416E0,-5.559730530E-2,-5.847134590E-1
3.434910397E0,-1.996691704E0,-5.025033951E-1,-1.239319801E0
3.453736751E0,-1.952855349E0,-8.434219360E-1,-1.489726067E0
3.472563053E0,-1.560545325E0,-9.163341522E-1,-1.506660223E0
3.491389355E0,-1.228209734E0,-9.001979828E-1,-1.408486843E0
3.510215710E0,-1.238738894E0,-1.024395943E0,-1.614220858E0
3.529042012E0,-1.526317716E0,-8.097276688E-1,-1.861013889E0
3.547868366E0,-1.606818557E0,-1.893043518E-3,-1.838164806E0
3.566694668E0,-1.409821749E0,7.100219727E-1,-1.800353169E0
3.585520970E0,-1.069338560E0,1.366354942E0,-1.587496758E0
3.604347324E0,-6.509280205E-1,1.263229370E0,-1.378444314E0
3.623173626E0,-5.804879069E-1,1.029512405E0,-1.163981438E0
3.641999980E0,-5.297352672E-1,8.774442673E-1,-9.912259579E-1
3.660826282E0,-2.739225030E-1,6.813211441E-1,-5.693409443E-1
3.679652585E0,9.364801645E-2,5.857257843E-1,6.573843956E-2
3.698478939E0,2.581307888E-1,5.457010269E-1,2.863824368E-1
3.717305241E0,2.550957799E-1,7.320833206E-1,9.750080109E-2
3.736131595E0,2.626756430E-1,1.058940887E0,-3.331573009E-1
3.754957897E0,5.209044218E-1,9.379968643E-1,-7.867803574E-1
3.773784199E0,8.302359581E-1,5.249300003E-1,-1.384685040E0
3.792610553E0,9.602822065E-1,4.907474518E-1,-1.726469517E0
3.811436855E0,1.065864444E0,7.865695953E-1,-1.989066839E0
3.830263210E0,1.236305118E0,8.036432266E-1,-2.056377411E0
3.849089512E0,1.276042700E0,1.074459076E0,-2.124428511E0
3.867915866E0,1.086116433E0,1.138648033E0,-1.884968996E0
3.886742168E0,7.815258503E-1,7.528600693E-1,-1.835535288E0
3.905568522E0,4.443936348E-1,5.524454117E-1,-1.973803043E0
3.924394824E0,2.126975060E-1,4.734468460E-1,-1.780382395E0
3.943221178E0,2.640901804E-1,6.433544159E-1,-1.604419231E0
3.962047480E0,3.342190981E-1,5.638828278E-1,-1.462401152E0
3.980873835E0,3.695604801E-1,4.131383896E-1,-1.580420017E0
3.999700137E0,1.164557934E-1,7.944841385E-1,-1.702732325E0
4.018526491E0,1.806473732E-1,1.256601334E0,-1.738220215E0
4.037352793E0,2.651867867E-1,1.595078945E0,-1.413161516E0
4.056179147E0,1.939015388E-1,1.696722031E0,-8.698430061E-1
4.075005449E0,-1.621699333E-2,1.280688286E0,-6.681332588E-1
4.093831803E0,-3.482078314E-1,8.655576706E-1,-5.307450294E-1
4.112658105E0,-4.132739305E-1,8.569097519E-2,-5.076861382E-1
4.131484460E0,-4.227516651E-1,-2.618269920E-1,-4.402289391E-1
4.150310762E0,-4.686067104E-1,-1.129560471E-1,-3.009128571E-2
4.169137116E0,-2.022001743E-1,1.539659500E-1,-1.739258766E-1
4.187963418E0,-3.301267624E-1,2.608485222E-1,-4.050102234E-1
4.206789772E0,-6.203992367E-1,2.282204628E-1,-5.062932968E-1
4.225616074E0,-5.459747314E-1,1.154785156E-1,-5.604124069E-1
4.244442428E0,-5.793831348E-1,2.817955017E-1,-1.454615593E-1
4.263268730E0,-7.219586372E-1,1.854329109E-1,-6.064982414E-1
4.282095085E0,-1.160537004E0,-4.299054146E-1,-1.395288944E0
4.300921439E0,-8.427457809E-1,-7.260203362E-1,-1.731690407E0
4.319747741E0,-1.415916681E0,-8.121366501E-1,-2.462550163E0
4.338574095E0,-1.969340324E0,-4.646639824E-1,-2.593756676E0
4.357400397E0,-2.280260086E0,-2.363963127E-1,-2.522774935E0
4.376226751E0,-2.933641195E0,1.433849335E-1,-1.964203358E0
4.395053105E0,-3.705851316E0,-4.970154762E-1,-2.664228678E0
4.413879407E0,-4.557284355E0,-4.211020470E-1,-2.209173441E0
4.432705762E0,-4.642692566E0,3.577551842E-1,-1.031466961E0
4.451532116E0,-4.631546974E0,9.177436829E-1,-6.757321358E-1
4.470358418E0,-4.722213268E0,8.117599487E-1,-5.441842079E-1
4.489184772E0,-3.302158117E0,4.826722145E-1,3.042984009E-1
4.508011074E0,-1.502203465E0,4.117217064E-1,7.175240517E-1
4.526837428E0,-1.604718447E0,2.388744354E-1,-2.729415894E-2
4.545663782E0,-1.519402027E0,3.899617195E-1,-6.318600178E-1
4.564490137E0,-7.595655918E-1,7.288455963E-3,-1.247962952E0
4.583316439E0,-5.367493629E-1,-6.871414185E-1,-1.814432502E0
4.602142793E0,-1.832056046E-1,-7.505960464E-1,-1.851676702E0
4.620969147E0,6.818842888E-1,-4.613394737E-1,-1.010104179E0
4.639795501E0,1.314287186E0,-9.595327377E-1,-1.239412069E0
4.658621803E0,4.578058720E-1,-8.880653381E-1,-1.177735806E0
4.677448157E0,2.458242178E0,1.065216064E-1,6.322464943E-1
4.696274512E0,4.437719345E0,6.837015152E-1,2.009634256E0
4.715100866E0,2.810297251E0,1.392146111E0,2.282465935E0
4.733927168E0,8.279953003E-1,1.956949234E0,1.708745718E0
4.752753522E0,1.480061769E0,2.124152184E0,1.643345833E0
4.771579876E0,1.877061963E0,2.209362030E0,2.262721062E0
4.790406230E0,1.209677815E0,2.110112190E0,1.868950605E0
4.809232585E0,1.263848782E0,1.634320259E0,5.681774616E-1
4.828058887E0,1.761650085E0,1.041054726E0,-9.644174576E-2
4.846885241E0,1.274513960E0,5.873413086E-1,-2.304041386E-1
4.865698470E0,-1.387491226E-1,1.628608704E-1,-8.595528603E-1
4.884537897E0,-7.210581303E-1,-1.001548767E-2,-7.544107437E-1
4.903364251E0,1.649873704E-1,1.508665085E-1,-9.456920624E-1
4.922190605E0,3.631650805E-1,5.936985016E-1,-5.709207058E-1
4.941016960E0,-6.398375630E-1,8.096733093E-1,-8.431150913E-1
4.959843262E0,-1.449991703E0,1.079206467E0,-7.478220463E-1
4.978669616E0,-1.280445933E0,6.033945084E-1,3.902983665E-2
4.997495970E0,-9.693300724E-1,2.590713501E-1,3.351283073E-2
5.016322272E0,-5.839215517E-1,-2.477188110E-1,-2.833232880E-1
5.035148626E0,-1.445761919E-1,-3.193244934E-1,-3.460216522E-1
5.053974980E0,3.509150743E-1,-2.315330505E-1,4.334051609E-1
5.072801335E0,3.278292418E-1,-2.697277069E-2,-1.363751888E-1
5.091627637E0,-6.531035900E-2,8.046960831E-1,-9.412777424E-1
5.110453991E0,-2.697829008E-1,1.954516411E0,-1.879609108E0
5.129280345E0,1.165890694E-2,2.844746590E0,-2.009281635E0
5.148106699E0,9.247914553E-1,3.496237755E0,-1.607844114E0
5.166933001E0,1.953316569E0,3.395422935E0,-1.226040006E0
5.185759355E0,2.545988798E0,2.500835419E0,-8.270485401E-1
5.204585710E0,2.665705442E0,1.633674622E0,-7.184863091E-1
5.223412064E0,2.398907185E0,6.468286514E-1,-4.915562868E-1
5.242238366E0,1.859793901E0,-1.885805130E-1,-1.710474491E-1
5.261064720E0,1.291064501E0,-9.198713303E-1,-4.548522234E-1
5.279891074E0,9.089777470E-1,-1.422226906E0,-8.959418535E-1
5.298717428E0,1.003893971E0,-1.795762539E0,-1.377868652E0
5.317543730E0,1.336456418E0,-1.883668900E0,-2.021943092E0
5.336370085E0,1.506610155E0,-1.595677376E0,-2.360078573E0
5.355196439E0,1.345396996E0,-1.037310600E0,-2.722493649E0
5.374022793E0,9.706010222E-1,-6.440629959E-1,-3.293045521E0
5.392849147E0,9.585332274E-1,-1.823816299E-1,-3.710020065E0
5.411675449E0,1.184201121E0,-1.674079895E-1,-3.830298901E0
5.430501803E0,1.180868983E0,-5.710325241E-1,-3.807433605E0
5.449328157E0,1.026994944E0,-6.920242310E-1,-4.270896435E0
5.468154512E0,1.142757177E0,-7.636289597E-1,-4.780869484E0
5.486980866E0,1.429022193E0,-7.734756470E-1,-4.871506691E0
5.505807220E0,1.570774555E0,-1.675291061E-1,-4.569282532E0
5.524633522E0,1.771163940E0,4.453725815E-1,-4.361522675E0
5.543459876E0,2.221370459E0,1.263095856E0,-4.180986881E0
5.562286230E0,3.615709782E0,4.775362015E-1,-3.611534357E0
5.581112585E0,4.789223671E0,8.494081497E-1,-2.110390663E0
5.599925814E0,5.822276115E0,7.261037827E-1,-1.463395357E-1
5.618765241E0,4.740768433E0,3.312695503E0,1.131629229E0
5.637591595E0,3.150904179E0,5.396160126E0,1.096836805E0
5.656417949E0,3.122914314E0,5.371397018E0,1.124531746E0
5.675244303E0,2.959980965E0,4.078847885E0,1.330427170E0
5.694070657E0,1.272801995E0,2.565767288E0,1.133906841E0
5.712883887E0,-1.372180700E0,2.212840080E0,-1.426905394E-1
5.731723366E0,-3.917604685E0,2.043940544E0,-1.070698738E0
5.750549668E0,-5.312263012E0,1.157834053E0,-1.371723771E0
5.769376022E0,-4.774189949E0,4.019451141E-2,-6.411132812E-1
5.788202376E0,-4.127316952E0,-2.877120972E-1,1.069015861E0
5.807028730E0,-4.994308949E0,-5.128469467E-1,1.687410712E0
5.825855085E0,-4.581160069E0,1.293468475E-1,4.051823616E-1
5.844681439E0,-3.767651558E0,-7.049922943E-1,2.117700577E-1
5.863507793E0,-6.176618576E0,-1.538649082E0,2.388518810E0
5.882334147E0,-6.734135151E0,-1.270381927E0,1.941570520E0
5.901160501E0,-4.878039837E0,-8.872985840E-2,7.355735302E-1
5.919986803E0,-4.459352493E0,9.639225006E-1,2.466635704E-1
5.938813157E0,-4.634234905E0,1.570583344E0,-1.503968239E-1
5.957639512E0,-3.292946100E0,1.100324631E0,-9.971690178E-1
5.976465866E0,-1.863699555E0,5.184116364E-1,-2.008733749E0
5.995292220E0,-5.907254815E-1,2.091903687E-1,-2.516141653E0
6.014118574E0,-4.053544998E-2,8.556733131E-1,-2.786422491E0
6.032944928E0,-1.111152172E-1,1.744026184E0,-3.353565216E0
6.051771282E0,-6.663761139E-1,7.557625771E-1,-3.327307463E0
6.070597637E0,-1.374312162E0,2.783298492E-3,-2.942241669E0
6.089423991E0,-2.244972229E0,2.385473251E-1,-3.312786341E0
6.108250345E0,-1.801256537E0,9.042134285E-1,-2.637624502E0
6.127076699E0,-6.022543907E-1,1.202133179E0,-7.090263367E-1
6.145903001E0,5.010702610E-1,7.741503716E-1,1.948628426E-1
6.164729355E0,1.227973461E0,6.212549210E-1,6.915483475E-1
6.183555710E0,8.957694769E-1,7.705321312E-1,8.284745216E-1
6.202382064E0,6.488600969E-1,1.028596401E0,1.086225510E-1
6.221208418E0,9.748045206E-1,9.693384171E-1,-7.705559731E-1
6.240034772E0,1.123437285E0,8.958916664E-1,-1.101232052E0
6.258861126E0,1.110871434E0,5.516715050E-1,-1.632357597E0
6.277687480E0,1.536917567E0,1.784057617E-1,-1.696380615E0
6.296513835E0,1.693786383E0,1.888341904E-1,-1.614465714E0
6.315340189E0,1.406283736E0,-4.288911819E-2,-1.733779430E0
6.334166543E0,1.502742290E0,1.223096848E-1,-1.134953022E0
6.352992897E0,1.299152851E0,-3.567743301E-2,-2.342205048E-1
6.371819251E0,4.370555878E-1,1.698737144E-1,-3.789920807E-1
6.390645657E0,-5.362339020E-1,4.014573097E-1,-8.800592422E-1
6.409472012E0,-1.325417757E0,2.217931747E-1,-1.317625046E0
6.428298366E0,-1.313589334E0,-6.806755066E-2,-1.761910439E0
6.447124720E0,-5.401091576E-1,-3.461790085E-2,-1.690988541E0
6.465951074E0,-2.032270432E-1,4.292392731E-1,-1.156378269E0
6.484777428E0,2.051208019E-1,7.347393036E-1,-9.505438805E-1
6.503603782E0,1.276069880E0,5.174922943E-1,-1.114974022E0
6.522430137E0,1.977757812E0,1.462006569E-1,-1.589851856E0
6.541256491E0,2.620094776E0,2.005777359E-1,-1.627508163E0
6.560082845E0,3.045329571E0,7.571554184E-1,-1.092428684E0
6.578909199E0,2.897310257E0,1.008941650E0,-6.676831245E-1
6.597735553E0,3.621813297E0,1.252651215E0,-4.922676086E-1
6.616561960E0,4.454010963E0,1.465831757E0,-1.230640411E-1
6.635388314E0,5.442466259E0,1.494925022E0,-2.745604515E-1
6.654214668E0,6.792020321E0,1.536230087E0,-8.809390068E-1
6.673041022E0,7.402022362E0,1.260375500E0,-8.018813133E-1
6.691867376E0,4.942707539E0,1.892153263E0,-6.865558624E-1
6.710693730E0,1.961380720E0,1.990033627E0,-6.321420670E-1
6.729520085E0,1.373471498E0,1.915933609E0,-1.171007633E0
6.748346439E0,9.373309612E-1,1.620794773E0,-9.464368820E-1
6.767172845E0,4.291183949E-1,9.550004005E-1,-9.453701973E-1
6.785999199E0,9.797704220E-1,1.223318100E0,-1.669502258E-2
6.804825553E0,1.945918083E0,2.132791519E0,7.832016945E-1
6.823651907E0,2.157893658E0,2.752912045E0,1.024705410E0
6.842478262E0,1.619942307E0,3.005397320E0,2.188444138E-1
6.861304616E0,2.532494068E-1,3.114216805E0,-9.703249931E-1
6.880131022E0,-6.705107689E-1,3.411124229E0,-1.095530987E0
6.898957376E0,-5.373828411E-1,4.016992569E0,-6.369867325E-1
6.917783730E0,4.993438721E-3,4.108704090E0,-5.984897614E-1
6.936610085E0,2.148578167E-1,3.339787960E0,-1.130999565E0
6.955436439E0,-3.976194859E-1,2.702783585E0,-1.730085850E0
6.974262793E0,-1.359173775E0,2.312745571E0,-2.050950050E0
6.993089199E0,-2.020140648E0,1.871020317E0,-1.536905289E0
7.011915553E0,-2.594356537E0,2.377814293E0,-8.640294075E-1
7.030741907E0,-2.559635878E0,2.196544647E0,-7.759671211E-1
7.049568262E0,-1.870429754E0,1.384150982E0,-1.814630508E0
7.068394616E0,-2.692838669E0,1.680624485E0,-1.656923771E0
7.087221022E0,-3.313518047E0,1.445542336E0,-6.319580078E-1
7.106047376E0,-2.329617977E0,5.374364853E-1,-9.201288223E-2
7.124873730E0,-1.704371333E0,-6.984519958E-2,2.621951103E-1
7.143700085E0,-2.046172619E0,-7.296476364E-1,-5.004172325E-1
7.162526439E0,-2.609511852E0,-1.320133686E0,-1.734590054E0
7.181352793E0,-2.901702881E0,-1.348141670E0,-2.863202095E0
7.200179199E0,-2.898357153E0,-1.153465748E0,-3.286676884E0
7.219005553E0,-2.749228477E0,-1.002140999E0,-2.938632011E0
7.237831907E0,-2.409872293E0,-4.973754883E-1,-2.378652573E0
7.256658262E0,-2.032588959E0,-7.130479813E-2,-2.168399334E0
7.275484616E0,-1.728896379E0,6.976604462E-2,-1.208143711E0
7.294311022E0,-1.694270611E0,6.424226761E-1,-4.244165421E-1
7.313137376E0,-2.517306089E0,7.908706665E-1,-1.256213188E-1
7.331963730E0,-3.854805470E0,8.255538940E-1,-4.529790878E-1
7.350790085E0,-5.084365368E0,1.720933914E-1,-1.575881958E0
7.369616439E0,-5.085812569E0,-1.909523010E-1,-1.701007605E0
7.388442845E0,-4.421001911E0,2.791385651E-1,5.084085464E-1
7.407269199E0,-4.068235397E0,3.739948273E-1,1.488962173E0
7.426095553E0,-4.385150433E0,-1.992893219E-2,5.372974873E-1
7.444921907E0,-4.600612640E0,1.040668488E-1,-7.618443966E-1
7.463748262E0,-4.283503056E0,2.971210480E-1,-9.417535067E-1
7.482574668E0,-3.991206646E0,5.230712891E-1,-6.900135279E-1
7.501401022E0,-3.721794128E0,8.647899628E-1,-1.153715849E-1
7.520227376E0,-2.937859774E0,1.611585617E0,-6.711665392E-1
7.539053730E0,-2.009419203E-1,2.377511978E0,-7.375118136E-1
7.557880137E0,1.269456387E0,2.530951500E0,1.152911305E0
7.576706491E0,1.317129612E0,2.654201508E0,3.434829950E0
7.595532845E0,2.031957150E0,2.231618881E0,3.634394884E0
7.614359251E0,2.372587204E0,1.591684341E0,2.555670261E0
7.633185605E0,2.783903122E0,7.663621902E-1,1.332494378E0
7.652011960E0,3.263717651E0,1.036291122E-1,7.340180874E-2
7.670838314E0,3.161156654E0,-3.554658890E-1,-8.948129416E-1
7.689664720E0,2.289946318E0,-7.043237686E-1,-1.826228738E0
7.708491074E0,1.249518394E0,-9.646368027E-1,-2.396488667E0
7.727317428E0,1.098442316E0,-7.495050430E-1,-1.638239503E0
7.746143835E0,1.314594269E0,3.294401169E-1,2.572083473E-2
7.764970189E0,1.640134454E0,4.728841782E-1,7.996859550E-1
7.783796543E0,1.225060344E0,1.261106491E0,1.257940531E0
7.802622949E0,3.544242978E-1,1.391465187E0,1.140217066E0
7.821449303E0,-1.632457972E-1,1.168049812E0,1.328462958E-1
7.840275657E0,-2.950497866E-1,5.850811005E-1,-4.184886217E-1
7.859102012E0,-7.858630419E-1,1.369214058E0,1.295580864E0
7.877928418E0,-2.538313866E-1,9.378681183E-1,1.024675846E0
7.896754772E0,-1.959999800E-1,9.367837906E-1,2.990758419E-1
7.915581126E0,-3.825099468E-1,7.907752991E-1,-3.984206319E-1
7.934407532E0,-5.436158180E-2,7.072868347E-1,-7.455031872E-1
7.953233887E0,7.263271809E-1,7.647342682E-1,-7.496999502E-1
7.972060241E0,1.703324556E0,5.806303024E-1,-6.715635061E-1
7.990886647E0,2.351595640E0,4.769134521E-1,-6.022949815E-1
8.009713001E0,2.138715744E0,1.230003357E0,-1.048964560E-1
8.028546322E0,1.879319906E0,1.797437668E0,-3.258711100E-2
8.047372677E0,1.210063219E0,2.204496384E0,-7.178905606E-2
8.066199031E0,6.708908677E-1,1.941317558E0,-4.938861132E-1
8.085025437E0,6.388281584E-1,1.054244995E0,-1.485275745E0
8.103851791E0,4.977674186E-1,3.493518829E-1,-2.073177814E0
8.122678145E0,7.324256897E-1,2.546215057E-2,-2.158463240E0
8.141504552E0,1.258877993E0,-1.911706924E-1,-1.971272707E0
8.160330906E0,1.786202669E0,-5.979566574E-1,-1.719787836E0
8.179157312E0,2.009457588E0,-1.449419975E0,-2.009828329E0
8.197983666E0,1.695400953E0,-2.504637241E0,-2.494119644E0
8.216810020E0,1.069189668E0,-2.790379047E0,-3.229481220E0
8.235636427E0,9.902410507E-1,-2.462579727E0,-3.934870958E0
8.254462781E0,9.316631556E-1,-1.434331894E0,-4.133095741E0
8.273289187E0,8.040850163E-1,-2.296819687E-1,-3.900230646E0
8.292115541E0,5.702596903E-1,1.059404373E0,-3.348270893E0
8.310941895E0,6.586366892E-1,1.422521591E0,-3.222012043E0
8.329768302E0,7.076516151E-1,1.125227928E0,-2.750076532E0
8.348594656E0,7.242580652E-1,9.570837021E-1,-2.017054081E0
8.367421062E0,2.243912220E-1,1.062209129E0,-1.671622038E0
8.386247416E0,5.422312021E-2,8.548192978E-1,-1.953073740E0
8.405073822E0,2.894594669E-1,5.085573196E-1,-2.167431593E0
8.423900177E0,5.087428689E-1,5.239772797E-2,-2.392714262E0
8.442726531E0,5.804053545E-1,-3.413953781E-1,-2.595726967E0
8.461552937E0,2.645068765E-1,-5.964937210E-1,-2.921720028E0
8.480379291E0,-3.353952169E-1,-5.523109436E-1,-3.091070414E0
8.499205697E0,-9.224666357E-1,-8.429813385E-2,-3.213422298E0
8.518032052E0,-1.283658624E0,1.270866394E-1,-3.247585773E0
8.536858458E0,-1.533980846E0,2.464370728E-1,-3.072829485E0
8.555684812E0,-1.675674438E0,6.161212921E-2,-2.788456917E0
8.574511218E0,-1.919848084E0,-1.990852356E-1,-2.579109192E0
8.593337572E0,-2.375020027E0,-2.332820892E-1,-2.160441875E0
8.612163927E0,-3.099074602E0,4.905805588E-1,-1.115221739E0
8.630990333E0,-3.406040430E0,5.978651047E-1,-7.717294097E-1
8.649816687E0,-3.492916107E0,6.332559586E-1,-8.597276211E-1
8.668643093E0,-3.223173141E0,3.137617111E-1,-7.579644918E-1
8.687469447E0,-2.808778286E0,6.574554443E-1,-1.806571484E-1
8.706295854E0,-2.319849014E0,1.110033989E0,3.837026358E-1
8.725122208E0,-1.696768403E0,1.320503235E0,3.880405426E-1
8.743948614E0,-1.091175079E0,1.264971733E0,2.375260592E-1
8.762774968E0,-5.873995423E-1,1.048983574E0,3.704297543E-1
8.781601375E0,-2.925070524E-1,6.722307205E-1,3.209284544E-1
8.800427729E0,-1.742762029E-1,-7.496261597E-2,-1.673349142E-1
8.819254135E0,-2.453719079E-1,-4.339418411E-1,-3.103218079E-1
8.838080489E0,-5.361424685E-1,-6.422319412E-1,-3.649553061E-1
8.856906895E0,-9.884753227E-1,-6.815738678E-1,-2.616471052E-1
8.875733250E0,-1.319901466E0,-5.130252838E-1,-3.051334620E-1
8.894559656E0,-1.349808455E0,-5.473661423E-1,-7.367349863E-1
8.913386010E0,-1.528820753E0,-2.738542557E-1,-8.110647202E-1
8.932212416E0,-1.661319017E0,-2.049188614E-1,-8.275310993E-1
8.951038770E0,-1.812357903E0,-1.772203445E-1,-5.695269108E-1
8.969865177E0,-1.955987334E0,-1.336755753E-1,-4.430003166E-1
8.988691531E0,-2.118146896E0,2.234935760E-2,-5.153684616E-1
9.007517937E0,-2.350286007E0,-1.176776886E-1,-5.068566799E-1
9.026344291E0,-2.613414764E0,-2.048120499E-1,-1.412829161E-1
9.045170697E0,-2.695395947E0,-4.622478485E-1,1.920773983E-1
9.063997052E0,-2.502717018E0,-1.090373039E0,4.803783894E-1
9.082823458E0,-2.293493748E0,-1.754836082E0,7.885105610E-1
9.101649864E0,-2.203631878E0,-2.001258850E0,1.280352116E0
9.120476218E0,-2.176387310E0,-2.066428185E0,1.751053452E0
9.139302625E0,-2.252662659E0,-1.936573505E0,2.151479721E0
9.158128979E0,-2.303990841E0,-1.497554779E0,2.286676884E0
9.176955385E0,-2.309974432E0,-9.426212311E-1,1.951045513E0
9.195781739E0,-2.431479454E0,2.948837280E-1,1.594729662E0
9.214608145E0,-2.589915752E0,1.387417793E0,1.553251505E0
9.233434552E0,-2.719938755E0,1.853101730E0,1.280304432E0
9.252260906E0,-2.576325178E0,1.631678581E0,7.280552387E-1
9.271087312E0,-2.361239672E0,1.462143898E0,3.508346081E-1
9.289913666E0,-2.169883728E0,1.247122765E0,2.989578247E-1
9.308740072E0,-1.917904615E0,1.196330070E0,1.404464245E-1
9.327566479E0,-1.695640445E0,7.306108475E-1,-2.712376118E-1
9.346392833E0,-1.585202336E0,1.459074020E-1,-4.863750935E-1
9.365219239E0,-1.442153335E0,-2.385139465E-3,-5.560703278E-1
9.384045645E0,-1.233031631E0,-4.191741943E-1,-8.584074974E-1
9.402872000E0,-1.236881733E0,-4.604597092E-1,-9.582345486E-1
9.421698406E0,-1.027512193E0,-4.730110168E-1,-1.083976507E0
9.440524760E0,-3.430454731E-1,-4.333267212E-1,-1.178289175E0
9.459351166E0,2.070709467E-1,1.376752853E-1,-9.669010639E-1
9.478177572E0,6.619601250E-1,3.065080643E-1,-5.757231712E-1
9.497003927E0,1.359433889E0,2.330503464E-1,-6.143145561E-1
9.515830333E0,1.812228560E0,4.632701874E-1,-5.135722160E-1
9.534656739E0,1.788678646E0,8.691692352E-1,2.067756653E-2
9.553483093E0,1.897549868E0,8.418078423E-1,2.861537933E-1
9.572309500E0,1.929379702E0,6.203145981E-1,4.305982590E-1
9.591135906E0,2.015207767E0,2.385416031E-1,6.405558586E-1
9.609962260E0,2.005493164E0,-9.957361221E-2,6.973180771E-1
9.628788666E0,2.266253471E0,-2.728319168E-1,1.079030037E0
9.647615072E0,2.010256767E0,7.882642746E-2,1.568317890E0
9.666441427E0,1.999116421E0,3.800110817E-1,1.889592171E0
9.685267833E0,1.905078173E0,7.953619957E-1,2.084412098E0
9.704094239E0,1.977812886E0,7.797975540E-1,1.972526550E0
9.722920645E0,1.987007856E0,9.061884880E-1,2.055586338E0
9.741747000E0,2.272955894E0,6.126151085E-1,2.195547581E0
9.760573406E0,2.131823778E0,7.352895737E-1,2.184569836E0
9.779399812E0,1.782960415E0,6.498880386E-1,2.177380085E0
9.798226166E0,1.798535109E0,2.716903687E-1,2.094407558E0
9.817052572E0,2.214643955E0,-2.104282379E-1,2.170087337E0
9.835878979E0,2.226618052E0,-5.389218330E-1,1.536085606E0
9.854705385E0,1.974026918E0,-7.757482529E-1,1.013695717E0
9.873531739E0,2.147123575E0,-1.262117863E0,3.935141563E-1
9.892358145E0,2.120340109E0,-1.054583073E0,1.359076500E-1
9.911184552E0,1.902750969E0,-9.245948792E-1,-5.691146851E-2
9.930010958E0,1.567147017E0,-8.854990005E-1,-1.377649307E-1
9.948837312E0,1.359611750E0,-9.705686569E-1,-3.286552429E-2
9.967663718E0,1.559402704E0,-6.027469635E-1,3.874335289E-1
9.986490125E0,1.997918487E0,2.867012024E-1,8.329911232E-1
1.000531653E1,2.394159317E0,2.211108208E-1,1.177031994E0
1.002414288E1,2.733586550E0,5.302429199E-3,1.754197598E0
1.004296929E1,3.347021341E0,-5.502400398E-1,1.849263668E0
1.006179570E1,3.799206495E0,-1.148518085E0,1.546527386E0
1.008062210E1,3.668197155E0,-1.568858147E0,1.037459850E0
1.009944851E1,3.536548138E0,-1.516490459E0,9.574704170E-1
1.011827492E1,3.657649517E0,-1.528811932E0,8.248915672E-1
1.013710127E1,3.110744476E0,-1.507227898E0,7.306103706E-1
1.015592768E1,2.659570217E0,-1.408060551E0,8.571844101E-1
1.017475408E1,2.843294859E0,-8.734116554E-1,1.319836140E0
1.019358049E1,2.814863205E0,-4.353694916E-1,2.239287376E0
1.021240690E1,2.529235125E0,8.420181274E-2,2.929725170E0
1.023123330E1,1.792961121E0,2.458963394E-1,2.337513924E0
1.025005966E1,1.307347417E0,-8.040418625E-1,1.291525841E0
1.026888606E1,2.082910299E0,-1.166567326E0,8.075032234E-1
1.028771247E1,3.028301954E0,-4.204258919E-1,1.194155216E0
1.030653888E1,2.102519989E0,3.388538361E-1,9.949808121E-1
1.032536528E1,7.114727497E-1,4.075989723E-1,5.172834396E-1
1.034419169E1,2.850668430E-1,5.652613640E-1,5.466470718E-1
1.036301809E1,-8.901906013E-2,7.502574921E-1,1.063023567E0
1.038184445E1,-1.785113811E-1,9.432749748E-1,1.093785286E0
1.040067085E1,-7.152998447E-1,2.015445232E0,1.298121929E0
1.041949726E1,-6.014239788E-1,2.698201180E0,1.852111340E0
1.043832367E1,-7.554225922E-1,2.523622036E0,2.359728813E0
1.045715007E1,-1.456946254E0,1.987901211E0,2.195562840E0
1.047597648E1,-1.720778346E0,1.176000118E0,1.510700703E0
1.049480288E1,-9.702526331E-1,7.454013824E-2,2.627582550E-1
1.051361617E1,-3.287955523E-1,-2.893157005E-1,-1.795482159E0
1.053245564E1,-3.664193153E-1,-5.199503899E-1,-3.374378443E0
1.055128205E1,-4.937359095E-1,-8.401298523E-1,-3.842776060E0
1.057010846E1,-5.698511600E-1,-7.112054825E-1,-4.315208912E0
1.058893486E1,-1.053244591E0,-4.150104523E-1,-4.417491436E0
1.060776127E1,-1.488449335E0,1.853861809E-1,-3.948035002E0
1.062658768E1,-1.601132989E0,6.368274689E-1,-2.658469200E0
1.064541403E1,-2.128127575E0,9.129438400E-1,-1.668663025E0
1.066424044E1,-3.382281780E0,4.334697723E-1,-1.316135406E0
1.068305372E1,-4.475105286E0,2.254066467E-1,-1.407309532E0
1.070189325E1,-5.691938877E0,2.652354240E-1,-8.642702103E-1
1.072071966E1,-5.375685215E0,-2.643184662E-1,-1.727318764E-1
1.073954606E1,-3.917486906E0,-4.402999878E-1,1.170573235E-1
1.075837247E1,-4.025175095E0,9.361987114E-1,7.757163048E-1
1.077719888E1,-3.879506588E0,1.635458946E0,-6.043195724E-2
1.079602528E1,-4.288766861E0,2.477132320E0,-1.564612389E0
1.081485164E1,-4.313941479E0,1.861052990E0,-1.719076157E0
1.083367804E1,-3.393818378E0,1.929719925E0,-9.860219955E-1
1.085249132E1,-1.831679821E0,8.896493912E-1,-1.533470631E0
1.087133085E1,-4.273562431E-1,-2.762103081E-1,-2.341534853E0
1.089015726E1,3.879508972E-1,1.132843971E0,-2.558994293E-2
1.090898367E1,1.135385990E0,1.736382008E0,8.561868668E-1
1.092781007E1,1.035922527E0,1.450198174E0,8.010730743E-1
1.094663648E1,2.742176056E-1,1.509212494E0,1.618649960E0
1.096544976E1,-8.239083290E-1,9.094381332E-1,2.308969021E0
1.098428924E1,-1.989524841E0,8.960113525E-1,1.965548992E0
1.100311565E1,-2.891365528E0,5.827245712E-1,5.899333954E-1
1.102194205E1,-3.559960365E0,1.210059166E0,2.093749046E-1
1.104076846E1,-2.673605442E0,1.488364697E0,9.325332642E-1
1.105959486E1,-4.993200302E-1,1.631147385E0,9.514141083E-1
1.107842127E1,1.035653591E0,1.378971577E0,-3.303847313E-1
1.109724768E1,1.128804684E0,3.542690277E-1,-3.528704643E-1
1.111607408E1,1.424024582E0,-2.714594603E-1,-1.505278587E0
1.113490044E1,1.845106602E0,-4.852163792E-2,-2.103478909E0
1.115372684E1,2.400015831E0,2.518078089E-1,-1.833818913E0
1.117255325E1,2.479596615E0,2.376543283E-1,-1.422420502E0
1.119137966E1,1.400004387E0,7.696560621E-1,-9.402165413E-1
1.121020606E1,3.073158264E-1,7.540088296E-1,-2.080531120E-1
1.122903247E1,-2.940397263E-1,2.847176194E-1,-2.061734200E-1
1.124785888E1,-7.785682678E-1,1.637399197E-1,-5.318598747E-1
1.126668528E1,-1.312050819E0,4.891840518E-1,-1.017917633E0
1.128551169E1,-1.999301910E0,7.504400611E-1,-1.389561892E0
1.130433809E1,-2.386823654E0,9.153560400E-1,-1.627974272E0
1.132316450E1,-2.635687828E0,1.220759630E0,-1.476715803E0
1.134199091E1,-2.718029022E0,1.552935839E0,-1.407835245E0
1.136081726E1,-2.801441193E0,1.668886423E0,-1.558551550E0
1.137964367E1,-2.656982422E0,1.699828267E0,-2.002983570E0
1.139847007E1,-2.319664001E0,2.173515081E0,-2.386974573E0
1.141729648E1,-2.087548256E0,2.624465704E0,-2.682218552E0
1.143612289E1,-1.802767754E0,2.897119284E0,-2.454201460E0
1.145494929E1,-1.414460182E0,2.955685377E0,-2.200950384E0
1.147377570E1,-1.365962029E0,3.563105822E0,-1.962504387E0
1.149260210E1,-1.144550800E0,3.526847124E0,-2.029527903E0
1.151142851E1,-8.349719048E-1,3.476467848E0,-1.630309820E0
1.153025492E1,-5.623097420E-1,3.597896576E0,-1.309180021E0
1.154908132E1,-5.321955681E-1,3.661632061E0,-1.221680403E0
1.156790773E1,-1.119234085E0,3.927051067E0,-6.378722191E-1
1.158673414E1,-1.426441193E0,3.967535496E0,-5.025374889E-1
1.160556054E1,-1.479766846E0,3.545519829E0,-6.873748302E-1
1.162438695E1,-1.824854851E0,3.390809298E0,-7.231726646E-1
1.164321330E1,-2.005131721E0,4.072114468E0,-3.338360786E-1
1.166203971E1,-1.001359940E0,5.086206913E0,7.373332977E-2
1.168086611E1,4.607872963E-1,5.566049576E0,2.329993248E-1
1.169969252E1,1.544312954E0,5.416204453E0,7.587933540E-1
1.171851893E1,1.886504889E0,4.903307915E0,1.349513054E0
1.173734533E1,1.780768633E0,4.148776054E0,2.114955902E0
1.175617174E1,1.759481668E0,3.483272076E0,2.417065144E0
1.177499815E1,2.129915714E0,2.163706541E0,2.045905113E0
1.179382455E1,2.297679663E0,1.285099983E0,2.124212742E0
1.181265096E1,1.604792118E0,1.504533291E0,2.280791283E0
1.183147736E1,9.822945595E-1,1.809409618E0,2.322335720E0
1.185030377E1,5.545368195E-1,1.638526917E0,2.570984364E0
1.186913018E1,3.547644615E-1,1.036658764E0,2.833654881E0
1.188795658E1,2.966818810E-1,1.047297478E0,3.068249702E0
1.190678299E1,3.926696777E-1,1.484175205E0,3.359525204E0
1.192560940E1,8.031756878E-1,1.807260275E0,3.788728237E0
1.194443580E1,1.508935690E0,1.661889076E0,3.329965115E0
1.196326221E1,2.000150681E0,1.799020529E0,2.470812321E0
1.198208861E1,2.151952744E0,2.228718758E0,2.155068874E0
1.200091502E1,2.114803791E0,2.564693451E0,1.943087101E0
1.201974143E1,2.231044292E0,2.215225458E0,1.711959839E0
1.203856783E1,2.634469509E0,1.663031101E0,1.483296394E0
1.205739424E1,2.559719563E0,1.134826660E0,7.618737221E-1
1.207622065E1,2.101464033E0,8.619976044E-1,-7.987833023E-2
1.209504705E1,1.470604897E0,6.287641525E-1,-6.879472733E-2
1.211387346E1,1.176712513E0,3.515167236E-1,-3.162331581E-1
1.213269986E1,1.300050497E0,1.745719910E-1,3.386483192E-1
1.215152627E1,1.916201115E0,6.485209465E-1,1.488208294E0
1.217035268E1,2.303548336E0,1.625305891E0,1.991968155E0
1.218917908E1,2.186811209E0,2.696052551E0,2.457115173E0
1.220800549E1,1.661655664E0,2.746418953E0,2.221179962E0
1.222683190E1,1.030236721E0,1.791140079E0,1.572744370E0
1.224565830E1,4.429435730E-1,1.271337748E0,1.587775230E0
1.226448471E1,1.460919380E-1,1.354567766E0,1.847602844E0
1.228331111E1,-7.022190094E-2,1.227032900E0,2.065947533E0
1.230213752E1,4.920873642E-1,1.166094780E0,2.022809029E0
1.232096393E1,1.084886074E0,1.967265844E0,1.761091709E0
1.233979038E1,7.193670273E-1,2.467837572E0,1.931052685E0
1.235861679E1,6.320428848E-2,1.741192341E0,1.633735180E0
1.237744320E1,-4.792623520E-1,1.713708520E0,1.150328636E0
1.239626960E1,-4.976744652E-1,2.100790501E0,7.405643463E-1
1.241509601E1,-2.314319611E-1,2.269589186E0,9.531636238E-1
1.243392242E1,-6.442189217E-1,1.759314656E0,4.925651550E-1
1.245274882E1,-1.522478104E0,1.143456817E0,2.186088562E-1
1.247157523E1,-2.345840454E0,1.099544287E0,-1.170020103E-1
1.249040164E1,-2.698051929E0,9.046846628E-1,-1.060392380E0
1.250922804E1,-2.679070950E0,4.082019329E-1,-2.024067402E0
1.252805445E1,-1.977464676E0,-1.827244759E-1,-2.422399998E0
1.254688085E1,-1.045127392E0,-3.454402685E-1,-2.089921951E0
1.256570731E1,-5.056505203E-1,-1.743633747E-1,-1.975327015E0
1.258453372E1,-1.962885857E-1,-6.918871403E-2,-2.175216198E0
1.260336012E1,-5.222687721E-1,2.927880287E-1,-1.664695740E0
1.262218653E1,-1.298556328E0,2.114676237E-1,-1.154516697E0
1.264101294E1,-2.230805874E0,-3.389420509E-1,-1.206849575E0
1.265983934E1,-2.946317196E0,-9.564137459E-1,-1.220324039E0
1.267866575E1,-3.871545792E0,-1.205810189E0,-1.407718182E0
1.269749221E1,-4.528614521E0,-1.009842157E0,-1.213072777E0
1.271631861E1,-4.638336658E0,-9.185755253E-1,-8.764777184E-1
1.273514502E1,-4.553850651E0,-1.515819073E0,-1.273777008E0
1.275397143E1,-4.748509884E0,-2.325731039E0,-2.525575161E0
1.277279783E1,-4.722301006E0,-2.354298592E0,-2.854810715E0
1.279162424E1,-4.420806408E0,-1.823437929E0,-2.328091145E0
1.281045070E1,-3.966671944E0,-1.499642015E0,-1.131814957E0
1.282927710E1,-3.414172649E0,-1.317490935E0,-6.253843307E-1
1.284810351E1,-2.981545448E0,-1.776212215E0,-5.676593781E-1
1.286692992E1,-2.603585958E0,-1.961027026E0,-3.178663254E-1
1.288575632E1,-2.429796219E0,-1.750332355E0,-1.219320297E-1
1.290458273E1,-2.904161453E0,-1.174971104E0,-1.200771332E-2
1.292340919E1,-3.478820801E0,-1.414690495E0,-1.840877533E-2
1.294223559E1,-3.843991280E0,-1.865097523E0,-6.673631668E-1
1.296106200E1,-3.680363178E0,-2.384945154E0,-1.396970749E0
1.297988841E1,-3.917923927E0,-2.311151266E0,-1.588199615E0
1.299870174E1,-5.839937210E0,-7.541139722E-1,-1.817081451E0
1.301754127E1,-6.674937248E0,1.236431599E-1,-2.417696953E0
1.303636768E1,-4.678061008E0,7.336722314E-2,-9.892797470E-1
1.305518096E1,-3.324146748E0,1.841044307E0,1.376077652E0
1.307402049E1,-4.439183712E0,3.984307051E0,9.941730499E-1
1.309284690E1,-4.747176647E0,3.742172003E0,-8.435611725E-1
1.311166023E1,-2.988506794E0,3.259023666E0,-2.153137684E0
1.313049976E1,-2.139159203E0,3.869218349E0,-2.498683453E0
1.314932617E1,-1.729116559E0,5.343053818E0,-2.868979454E0
1.316815257E1,-1.014935732E0,4.982157230E0,-2.159185410E0
1.318697898E1,4.303029776E-1,2.832950592E0,-2.140237331E0
1.320580544E1,1.659002662E0,1.905563831E0,-1.536452293E0
1.322463184E1,2.330191851E0,3.302463055E0,2.222146988E0
1.324345825E1,3.517483234E0,3.130913734E0,-6.505231857E-1
1.326228466E1,1.923628926E0,3.131288052E0,-1.233012199E0
1.328109799E1,2.650552988E-1,3.530386686E0,9.856891632E-2
1.329993752E1,-1.189463615E0,4.355241299E0,7.413625717E-1
1.331876393E1,-1.525138021E0,3.689061642E0,-8.380613327E-1
1.333759033E1,-8.997626305E-1,3.124054670E0,-1.265721321E0
1.335641674E1,2.493187487E-1,2.466220856E0,-1.921503544E0
1.337524320E1,4.016674161E-1,2.819968224E0,-1.905107498E-1
1.339406960E1,9.880230427E-1,3.190659285E0,1.040163994E0
1.341289601E1,1.693414092E0,2.782063007E0,9.808578491E-1
1.343172242E1,1.441841125E0,1.958324552E0,1.066550255E0
1.345053575E1,5.005180240E-1,9.350917339E-1,4.342412949E-1
1.346937528E1,-4.606406689E-1,-4.955053329E-3,1.108617783E-1
1.348820169E1,-1.523584843E0,-2.026744485E-1,5.055284500E-1
1.350702809E1,-2.412631512E0,-3.906089067E-2,1.135082245E0
1.352585450E1,-3.024149895E0,-3.767534494E-1,1.066937447E0
1.354468096E1,-3.339400530E0,-5.558465719E-1,3.731193542E-1
1.356350736E1,-3.823546648E0,5.315788388E-1,-5.069169998E-1
1.358233377E1,-4.064850807E0,1.902192712E0,-1.245550156E0
1.360116018E1,-3.777288437E0,3.047910690E0,-1.926505089E0
1.361998664E1,-3.407106400E0,3.324367523E0,-2.083943844E0
1.363881304E1,-2.513865709E0,2.841848850E0,-2.035039425E0
1.365763945E1,-1.697919369E0,2.492122650E0,-1.921368122E0
1.367646585E1,-1.742054462E0,1.824511290E0,-2.340013981E0
1.369529231E1,-2.375857830E0,1.450909495E0,-2.959097862E0
1.371411872E1,-3.357165813E0,1.585689306E0,-3.512931824E0
1.373294512E1,-3.815894604E0,2.287190914E0,-3.800065041E0
1.375177153E1,-3.583168983E0,3.376965761E0,-3.979110241E0
1.377059799E1,-3.504333019E0,4.015556335E0,-4.029664993E0
1.378942440E1,-3.484278679E0,4.596354008E0,-3.813495159E0
1.380825080E1,-3.225113869E0,5.526760578E0,-3.279169559E0
1.382707726E1,-2.245635509E0,6.077477455E0,-2.611172199E0
1.384590367E1,-1.015590191E0,6.045379162E0,-2.106966972E0
1.386473007E1,-2.041668892E-1,5.909089088E0,-1.173210621E0
1.388355653E1,4.578714371E-1,6.477657318E0,1.747798920E-2
1.390236981E1,2.182360888E0,6.602547646E0,1.576397896E0
1.392120934E1,4.044237137E0,5.546362400E0,2.578294754E0
1.394003580E1,5.058671951E0,3.999836922E0,3.246528625E0
1.395886221E1,5.267496109E0,2.798689127E0,2.802166939E0
1.397768861E1,5.273713589E0,2.700592518E0,1.975759506E0
1.399651502E1,5.991407394E0,2.144567966E0,9.729175568E-1
1.401532835E1,7.174700737E0,1.082172632E0,7.637987137E-1
1.403416788E1,8.704113007E0,1.051144361E0,3.516521454E-1
1.405299429E1,1.034688091E1,8.942646980E-1,-1.760296345E0
1.407180763E1,1.057913971E1,-9.600776434E-1,-6.017250061E0
1.409064716E1,8.242267609E0,1.543530226E0,-8.390854836E0
1.410947361E1,5.412191391E0,3.673741341E0,-1.036631393E1
1.412828690E1,2.798066378E0,2.732910633E0,-1.024594593E1
1.414712643E1,2.552207470E0,4.317404270E0,-9.408013344E0
1.416595289E1,2.451972961E0,4.932857513E0,-9.017572403E0
1.418476617E1,2.438301563E0,6.856437206E0,-8.246204376E0
1.420360570E1,1.526987553E0,7.646862507E0,-4.483163357E0
1.422243216E1,8.305778503E-1,9.349662781E0,6.388628483E-1
1.424124544E1,7.116179466E-1,8.645980835E0,5.211348534E0
1.426008497E1,-3.437729359E0,8.823246002E0,6.735565186E0
1.427891143E1,-1.004076385E1,9.073815346E0,8.364661217E0
1.429772476E1,-1.471020126E1,7.464512825E0,1.007541084E1
1.431656429E1,-1.518320847E1,5.359517097E0,1.045530319E1
1.433539070E1,-1.279257393E1,4.329877853E0,9.495263100E0
1.435420403E1,-1.160501480E1,4.110447884E0,6.702235699E0
1.437304356E1,-1.142992783E1,4.265266418E0,3.741089344E0
1.439187002E1,-1.084710789E1,4.414203167E0,1.230940342E0
1.441069643E1,-9.840782166E0,4.204921246E0,-6.953344345E-1
1.442952283E1,-8.212491989E0,3.840326786E0,-2.177020073E0
1.444834929E1,-6.907535553E0,3.021682262E0,-4.513096333E0
1.446717570E1,-7.052873611E0,2.877884865E0,-6.525444984E0
1.448600210E1,-6.634670734E0,2.601498604E0,-7.592627525E0
1.450482856E1,-4.750305653E0,2.368397713E0,-7.646720409E0
1.452364190E1,-2.149483681E0,2.538170338E0,-6.352937222E0
1.454248143E1,1.190822124E-1,3.018578529E0,-3.989566326E0
1.456130783E1,5.907558799E-1,3.350432634E0,-2.822977066E0
1.458013429E1,5.731090903E-1,2.005918264E0,-3.790313244E0
1.459896070E1,1.628999412E-1,1.585600376E0,-4.868751526E0
1.461778710E1,-1.668288559E-1,1.391266346E0,-4.778396606E0
1.463661356E1,2.818955183E-1,6.771790981E-1,-4.486050606E0
1.465543997E1,1.700141311E0,1.496446133E-1,-4.392332554E0
1.467426643E1,1.557644606E0,7.836246490E-1,-3.841816902E0
1.469309283E1,1.865898967E0,1.799868345E0,-3.015621662E0
1.471191929E1,3.425213814E0,2.310510397E0,-1.629370213E0
1.473074570E1,3.870740652E0,1.828990817E0,-1.453182697E0
1.474955903E1,1.455953598E0,1.497300863E0,-2.961565018E0
1.476839856E1,-5.887215137E-1,1.829581738E0,-4.375706196E0
1.478722497E1,-5.571244955E-1,2.203111172E0,-2.757489681E0
1.480605143E1,-8.795621395E-1,1.177758098E0,-1.236833572E0
1.482487783E1,-1.266281843E0,1.431551814E0,-1.604671955E0
1.484370429E1,-1.033329725E0,1.475008249E0,-9.366416931E-1
1.486253070E1,-3.219175339E-1,2.294127703E0,-1.253963470E0
1.488135716E1,-6.622619629E-1,2.776928425E0,-1.231364250E0
1.490018356E1,-1.585167646E0,3.059895039E0,-1.264382362E0
1.491900997E1,-1.042420387E0,3.663228989E0,-2.619400024E-1
1.493783643E1,9.556794167E-2,2.171179771E0,4.553527832E-1
1.495666283E1,7.227983475E-1,2.032187462E0,6.940755844E-1
1.497548929E1,9.441375732E-4,1.952187777E0,-6.236076355E-3
1.499431570E1,-1.338432431E0,1.952886701E0,-1.700904369E0
1.501314216E1,-6.314435005E-1,1.655333757E0,-1.025876045E0
1.503196856E1,-1.121318936E0,1.133173585E0,4.487352371E-1
1.505079502E1,-2.591573000E0,1.351399660E0,-8.062248230E-1
1.506962143E1,-1.472747803E0,2.551142216E0,-2.359883785E0
1.508843476E1,1.606237173E0,2.494714022E0,-2.646982193E0
1.510727429E1,3.744341135E0,1.868824601E0,-2.837505817E0
1.512610075E1,5.522267818E0,1.560974360E0,-3.135365963E0
1.514492716E1,6.563842773E0,1.571673274E0,-2.752795219E0
1.516375361E1,5.915757656E0,1.406987071E0,-2.850928307E0
1.518258002E1,5.631850243E0,7.435511947E-1,-4.293708801E0
1.520139335E1,5.396784782E0,5.200657248E-2,-5.114459515E0
1.522023289E1,4.790718079E0,-1.257252693E-2,-6.214336395E0
1.523905934E1,4.018417835E0,4.435845017E-1,-7.253657341E0
1.525787268E1,3.367389202E0,4.483826160E-1,-7.745229244E0
1.527671221E1,2.907773972E0,1.728429556E0,-8.468854904E0
1.529553867E1,8.326334953E-1,3.921842575E0,-8.205644608E0
1.531435200E1,-1.686532021E0,3.977099180E0,-7.198469162E0
1.533319153E1,-2.070086479E0,2.504515409E0,-5.402295589E0
1.535201794E1,-2.353533745E0,4.539116859E0,-2.639789581E0
1.537083127E1,-3.195043564E0,5.583834648E0,-2.991104126E-1
1.538967080E1,-2.348018169E0,4.114116192E0,8.603093624E-1
1.540849726E1,-2.532071114E0,4.104355335E0,4.687151909E-1
1.542732372E1,-4.307026386E0,4.110912323E0,-3.482773304E-1
1.544615012E1,-5.475762367E0,3.494799137E0,-1.981089115E-1
1.546497658E1,-5.515381813E0,2.123878479E0,1.291541576E0
1.548380304E1,-4.156317234E0,1.300625801E0,1.116326571E0
1.550262945E1,-4.343369007E0,1.114117622E0,6.467063427E-1
1.552145591E1,-5.416556358E0,1.304263115E0,1.410786629E0
1.554028231E1,-5.940978527E0,9.555683136E-1,1.952007413E0
1.555910877E1,-5.691972733E0,8.365535736E-1,2.178363800E0
1.557793523E1,-4.689599514E0,1.574802399E-2,1.153907537E0
1.559676164E1,-4.113463879E0,-4.269599915E-2,6.494613886E-1
1.561558809E1,-3.378134489E0,6.848278046E-1,3.265475035E-1
1.563441450E1,-2.399464130E0,9.350423813E-1,1.090788841E-1
1.565324096E1,-1.874934673E0,1.363866806E0,5.639376640E-1
1.567206742E1,-1.597144842E0,1.394745827E0,1.418869376E0
1.569089382E1,-1.237938404E0,1.222368240E0,1.787595510E0
1.570972028E1,-1.099422216E0,9.018020630E-1,1.543182611E0
1.572854674E1,-1.296376467E0,6.246366501E-1,1.709597349E0
1.574737315E1,-1.472372532E0,1.291149139E0,2.113068819E0
1.576619960E1,-1.161770344E0,1.360077858E0,2.192059278E0
1.578502601E1,-9.656424522E-1,1.364446640E0,2.027580738E0
1.580385247E1,-8.065018654E-1,1.520156860E0,1.945050836E0
1.582267893E1,-3.188123703E-1,1.612056732E0,1.485648870E0
1.584150533E1,5.100440979E-2,1.524908066E0,7.834398746E-1
1.586033179E1,1.290073395E-1,1.447484970E0,5.521304607E-1
1.587915825E1,2.524557114E-1,1.210472107E0,7.802493572E-1
1.589798466E1,3.396778107E-1,1.219020844E0,4.583820105E-1
1.591681111E1,5.072946548E-1,9.463186264E-1,-1.698069572E-1
1.593563752E1,6.894116402E-1,9.263277054E-1,-5.591388941E-1
1.595446398E1,9.081263542E-1,1.103737831E0,-2.855951786E-1
1.597329044E1,8.879070282E-1,1.571126938E0,-2.348542213E-2
1.599211684E1,1.046241283E0,1.451770306E0,6.209206581E-2
1.601094330E1,1.257399559E0,1.393845081E0,1.787061691E-1
1.602976976E1,1.180367947E0,2.043158531E0,1.466476917E-1
1.604859617E1,1.385151386E0,1.279162884E0,-1.731884480E-1
1.606742263E1,9.838151932E-1,1.019028664E0,-3.408439159E-1
1.608624908E1,8.197855949E-1,8.648304939E-1,-2.860348225E-1
1.610507549E1,1.040225506E0,9.702935219E-1,-4.529364109E-1
1.612390195E1,1.635139465E0,5.568075180E-1,-5.803806782E-1
1.614272841E1,2.365634680E0,2.625288963E-1,-4.833412170E-1
1.616155481E1,2.927040100E0,4.344544411E-1,-7.109799385E-1
1.618038127E1,2.914028883E0,3.774223328E-1,-1.307487965E0
1.619920773E1,2.953185081E0,1.577262878E-1,-1.454425335E0
1.621802101E1,3.788929462E0,1.467275620E-1,-9.534306526E-1
1.623686059E1,5.995977402E0,8.999853134E-1,5.661764145E-1
1.625568705E1,8.217917442E0,2.601239681E0,2.258542538E0
1.627451346E1,8.008970261E0,2.975772858E0,1.462121964E0
1.629333992E1,6.074189663E0,2.810058594E0,-6.011781693E-1
1.631216638E1,4.044475555E0,2.804432392E0,-2.647289276E0
1.633097966E1,2.163271904E0,2.816720009E0,-3.996499062E0
1.634981924E1,1.240019798E0,2.319887638E0,-4.740106583E0
1.636864564E1,9.524719715E-1,2.127234936E0,-4.620887756E0
1.638747210E1,1.005519629E0,1.722316742E0,-4.393460751E0
1.640629856E1,1.285080433E0,1.235567093E0,-4.327569008E0
1.642512502E1,1.007486343E0,1.588372707E0,-3.896754742E0
1.644395143E1,2.063088417E-1,2.095077515E0,-3.902100086E0
1.646277788E1,-5.544748306E-1,2.004025936E0,-4.338717461E0
1.648160434E1,-1.267197490E0,2.928923130E0,-4.521096230E0
1.650043075E1,-2.078815460E0,3.741665840E0,-4.362389565E0
1.651925721E1,-2.883950710E0,3.898627281E0,-4.434379578E0
1.653808367E1,-3.260704279E0,3.407126904E0,-4.349473000E0
1.655691007E1,-3.982754230E0,3.252234459E0,-4.152070522E0
1.657573653E1,-3.981214285E0,2.257056236E0,-3.931979418E0
1.659456299E1,-4.121160507E0,1.390597343E0,-3.866780043E0
1.661338945E1,-4.708383560E0,5.835218430E-1,-3.075564146E0
1.663221591E1,-5.966801167E0,6.584835052E-2,-2.243778229E0
1.665104231E1,-6.768346786E0,-7.712707520E-1,-1.198500633E0
1.666986877E1,-6.720813751E0,-8.441677094E-1,-7.508373260E-2
1.668869523E1,-5.447504520E0,2.764997482E-1,7.493848801E-1
1.670752169E1,-3.645241261E0,8.575506210E-1,5.282154083E-1
1.672634809E1,-2.601945877E0,1.604031563E0,-4.130525589E-1
1.674517455E1,-1.671740413E0,2.159626007E0,-1.047501326E0
1.676400101E1,-6.104947329E-1,2.161053658E0,-8.918817043E-1
1.678282747E1,2.746167779E-2,2.022859573E0,-1.425595284E-1
1.680165393E1,-1.988106370E-1,2.178149223E0,1.236896753E0
1.682048038E1,-7.658886909E-1,2.201829910E0,2.628798962E0
1.683930684E1,-1.288377523E0,2.314872742E0,2.772201538E0
1.685813325E1,-2.262490034E0,3.198402405E0,1.884394646E0
1.687695971E1,-3.188891411E0,2.683794022E0,1.326700687E0
1.689578617E1,-3.424031258E0,1.588112831E0,1.022779226E0
1.691461262E1,-3.064250469E0,7.493515015E-1,6.949334145E-1
1.693343908E1,-2.856578350E0,4.444370270E-1,2.663145065E-1
1.695226554E1,-2.969900608E0,4.910535812E-1,2.747330666E-1
1.697109200E1,-2.444193840E0,-3.879261017E-2,1.256221294E0
1.698991846E1,-1.059634924E0,-1.091560364E0,2.028396130E0
1.700874492E1,1.186490059E-2,-1.866482735E0,1.904534817E0
1.702757132E1,3.735404015E-1,-2.229624748E0,1.952881813E0
1.704639778E1,1.135847688E0,-2.366882801E0,1.360832214E0
1.706522424E1,1.816983461E0,-2.330933571E0,7.720041275E-1
1.708405070E1,1.904043913E0,-1.418713093E0,6.604843140E-1
1.710287716E1,1.720404148E0,-7.180657387E-1,1.137343407E0
1.712170361E1,1.803197026E0,-3.996372223E-1,1.324265003E0
1.714053007E1,1.436469436E0,-6.556248665E-1,7.622842789E-1
1.715935653E1,6.015257835E-1,-7.462439537E-1,9.531736374E-2
1.717818294E1,2.136237621E-1,-6.743102074E-1,-2.405118942E-1
1.719700940E1,2.358391285E-1,-9.145197868E-1,-5.028228760E-1
1.721583585E1,-3.874349594E-2,-1.094305515E0,-8.558368683E-1
1.723466231E1,-3.194653988E-1,-1.101432323E0,-1.422328234E0
1.725348877E1,-3.632051945E-1,-8.942942619E-1,-1.247244835E0
1.727231523E1,4.260377884E-1,-1.064238548E0,-8.368487358E-1
1.729114169E1,1.058170080E0,-2.203532219E0,-4.543886185E-1
1.730996815E1,3.804209232E-1,-2.907179356E0,-8.198089600E-1
1.732879460E1,-7.818396091E-1,-2.982974529E0,-1.096511602E0
1.734762101E1,-1.070738077E0,-2.363085270E0,-5.077481270E-1
1.736644747E1,-1.439180374E0,-1.306642056E0,1.330609322E-1
1.738527393E1,-1.568002224E0,-2.097668648E-1,7.823905945E-1
1.740410038E1,-1.670339584E0,1.048128128E0,1.565248966E0
1.742292684E1,-1.472229004E0,7.398109436E-1,1.970123291E0
1.744175330E1,-1.243125677E0,5.047130585E-2,2.202239513E0
1.746057976E1,-1.476456881E0,1.241569519E-1,1.820654869E0
1.747940622E1,-1.770241499E0,-1.552009583E-1,1.550240278E0
1.749823268E1,-1.228441715E0,-4.169383049E-1,1.796546698E0
1.751705914E1,-4.648957253E-1,-5.368447304E-1,1.551255703E0
1.753588559E1,-2.912487984E-1,-7.189149857E-1,1.008037567E0
1.755471200E1,-2.948784828E-1,-6.260228157E-1,6.382219791E-1
1.757353846E1,-3.554363251E-1,-2.911663055E-1,1.671950817E-1
1.759236492E1,-6.714978218E-1,-4.656891823E-1,-1.393907070E-1
1.761119138E1,-7.809123993E-1,-8.619003296E-1,1.291568279E-1
1.763001783E1,-7.955005169E-1,-7.889900208E-1,7.126042843E-1
1.764884429E1,-9.416685104E-1,-5.071353912E-1,1.147552967E0
1.766767075E1,-1.079103231E0,-6.201081276E-1,1.621360302E0
1.768649721E1,-7.782380581E-1,-5.325961113E-1,2.091857910E0
1.770532367E1,-1.052908659E0,-4.099903107E-1,1.782372952E0
1.772415007E1,-8.737852573E-1,-3.191957474E-1,1.120888948E0
1.774297653E1,-4.838528633E-1,3.942394257E-2,9.505643845E-1
1.776180299E1,-2.897434235E-1,2.563858032E-1,1.177283287E0
1.778062945E1,-4.171538353E-2,1.836328506E-1,1.399462461E0
1.779945591E1,-9.943747520E-2,-1.858425140E-1,1.903988361E0
1.781828236E1,-7.352962494E-1,4.995899200E-1,1.928438663E0
1.783710882E1,-1.654123545E0,2.151017189E0,1.363681793E0
1.785593528E1,-2.026688099E0,2.144512177E0,6.349871159E-1
1.787476174E1,-1.952641368E0,9.006032944E-1,-8.147525787E-2
1.789358820E1,-1.962792158E0,-8.711528778E-2,-4.020538330E-1
1.791241466E1,-1.988472700E0,-1.086324692E0,-9.778940678E-1
1.793124111E1,-1.928309202E0,-1.241640091E0,-1.451442719E0
1.795006757E1,-1.601613998E0,-1.021500587E0,-1.550253630E0
1.796889403E1,-1.137895465E0,-4.016284943E-1,-1.652050018E0
1.798772049E1,-5.290039778E-1,1.321697235E-1,-1.847960830E0
1.800654690E1,-1.762568951E-2,2.764883041E-1,-2.098769665E0
1.802537335E1,3.612309694E-1,3.527956009E-1,-1.947215199E0
1.804419981E1,3.216413260E-1,5.775423050E-1,-1.936502934E0
1.806302627E1,1.415785551E-1,6.680116653E-1,-1.948317766E0
1.808185273E1,-4.407405853E-2,6.479310989E-1,-2.277394295E0
1.810067919E1,-6.897013187E-1,3.996086121E-1,-2.475490332E0
1.811950564E1,-1.081540108E0,-3.000450134E-2,-2.367371559E0
1.813833210E1,-9.261033535E-1,-4.925136566E-1,-2.091525555E0
1.815715856E1,-5.928220749E-1,-4.466753006E-1,-1.630530715E0
1.817598502E1,-2.882413864E-1,-5.639266968E-2,-1.194506049E0
1.819481148E1,-1.431586742E-1,4.165592194E-1,-8.092556000E-1
1.821363794E1,-1.128482819E-2,9.684038162E-1,-6.230933666E-1
1.823246440E1,-1.986479759E-2,1.053408623E0,-6.357681751E-1
1.825129080E1,-1.900556087E-1,7.983341217E-1,-5.412027836E-1
1.827011726E1,-3.244547844E-1,3.656005859E-1,-7.202060223E-1
1.828894372E1,-7.031960487E-1,2.166147232E-1,-1.061887622E0
1.830777018E1,-1.015646219E0,2.459564209E-1,-1.166312099E0
1.832659664E1,-8.842210770E-1,4.117488861E-1,-1.098410249E0
1.834542309E1,-7.381329536E-1,1.507186890E-1,-1.042721272E0
1.836424955E1,-7.237863541E-1,-3.179168701E-2,-3.451254368E-1
1.838307601E1,-4.965610504E-1,1.071805954E-1,4.081320763E-1
1.840190247E1,-4.935526848E-1,3.701972961E-2,9.242172241E-1
1.842072893E1,-9.564161301E-1,-1.020708084E-1,2.194070578E0
1.843955539E1,-1.324952126E0,6.169700623E-2,2.869111538E0
1.845838184E1,-1.924793243E0,-5.216217041E-2,2.030126572E0
1.847720830E1,-2.435686588E0,-1.749038696E-1,1.596000195E0
1.849603476E1,-2.776891232E0,5.610799789E-2,2.353156805E0
1.851486117E1,-3.365824699E0,2.372021675E-1,2.421016932E0
1.853367455E1,-3.605778217E0,1.758518219E-1,3.571689129E-1
1.855251408E1,-3.190506458E0,2.214903831E-1,-6.923091412E-1
1.857134054E1,-2.808792591E0,8.970336914E-1,1.275539398E-1
1.859016700E1,-1.694197178E0,1.317395210E0,-9.724774361E-1
1.860899346E1,-4.037280083E-1,2.086067200E0,-2.648270607E0
1.862781992E1,9.514193535E-1,2.137026787E0,-3.331363678E0
1.864663325E1,2.507966518E0,1.971451283E0,-4.214298248E0
1.866547283E1,4.505996704E0,1.559298992E0,-6.123283863E0
1.868429929E1,6.608920574E0,8.053712845E-1,-6.565150738E0
1.870311263E1,8.630575180E0,1.900615692E-1,-5.217435837E0
1.872195221E1,9.325906754E0,-1.070017815E-1,-2.770788193E0
1.874077867E1,9.510053635E0,-1.865267754E-1,-1.580011129E0
1.875960512E1,9.679190636E0,-5.040650368E-1,-1.311308384E0
1.877843158E1,9.185630798E0,-5.424952507E-1,-2.346493244E0
1.879725804E1,7.874594212E0,1.245694160E-1,-5.701915264E0
1.881607138E1,4.210474014E0,1.613429546E0,-8.242320061E0
1.883491096E1,-1.431798935E0,1.966413498E0,-6.540412903E0
1.885373742E1,-3.081806183E0,1.792143345E0,-3.902889013E0
1.887255075E1,1.049470901E-1,2.759029388E0,-7.061332464E-3
1.889139033E1,4.215863228E0,2.867663383E0,1.594582915E0
1.891021679E1,2.208469152E0,2.958558083E0,2.454809666E0
1.892903012E1,-1.855052471E0,5.512098312E0,8.431292534E0
1.894786971E1,-2.843766212E0,6.788491249E0,1.265896702E1
1.896669617E1,-8.050737381E0,1.007632065E1,1.214565945E1
1.898550950E1,-9.755236626E0,9.650918007E0,8.142217636E0
1.900434908E1,-8.421697617E0,9.031810760E0,6.263155460E0
1.902317554E1,-7.443815231E0,8.220800400E0,4.219974518E0
1.904200200E1,-6.046739578E0,7.268562317E0,2.893583536E0
1.906082846E1,-4.740007877E0,6.671951294E0,1.585471153E0
1.907965492E1,-3.955524683E0,6.992180824E0,4.754543304E-1
1.909848143E1,-4.049333096E0,6.548451900E0,8.590221405E-3
1.911730789E1,-4.487571716E0,6.170641899E0,-1.189147949E0
1.913613434E1,-5.078778267E0,6.073055267E0,-2.525692940E0
1.915496080E1,-5.685438156E0,5.504971981E0,-4.146219254E0
1.917378726E1,-6.185612679E0,4.861353397E0,-5.964006424E0
1.919261372E1,-5.611253738E0,3.378168583E0,-7.164678097E0
1.921142705E1,-4.786940098E0,2.425267935E0,-7.103142262E0
1.923026664E1,-3.568740606E0,5.097734928E-1,-7.992425919E0
1.924909309E1,-2.689231396E0,-2.087185383E-1,-8.389986038E0
1.926790643E1,-1.563829899E0,7.106971741E-1,-7.371542931E0
1.928674601E1,-5.602948666E-1,1.994829416E0,-6.166049004E0
1.930557247E1,-3.310363591E-1,1.542716742E0,-4.616364002E0
1.932439893E1,3.102411926E-1,9.115362167E-2,-3.555937767E0
1.934322544E1,7.733275294E-1,-4.117498398E-1,-3.420852184E0
1.936205190E1,-5.358610749E-1,7.612532377E-1,-3.783624172E0
1.938087835E1,-1.762838364E0,1.748504877E0,-4.911239624E0
1.939970481E1,-4.063282609E-1,1.398600221E0,-5.056869507E0
1.941853127E1,1.255596638E0,1.323963761E0,-3.021177292E0
1.943735773E1,1.517272949E0,1.793671489E0,-1.034008026E0
1.945618419E1,8.488943577E-1,1.925897241E0,-1.383509636E0
1.947501064E1,6.158969402E-1,1.645261168E0,-2.465392590E0
1.949383710E1,9.966645241E-1,1.803881526E0,-1.914680481E0
1.951266356E1,2.074454069E0,2.539562225E0,-4.256668091E-1
1.953149002E1,1.309292078E0,1.886104465E0,5.727653503E-1
1.955030335E1,-1.085297108E0,9.746559262E-1,6.318473816E-2
1.956914294E1,-1.454609871E0,1.062757730E0,-8.954772949E-1
1.958796940E1,-1.145577908E0,1.880711436E0,3.970832825E-1
1.960679591E1,-1.684650779E0,1.250586748E0,1.111726761E-1
1.962562236E1,-1.984646678E0,3.693265915E-1,-7.557020187E-1
1.964444882E1,-2.522657871E0,8.327831626E-1,-5.951423645E-1
1.966327528E1,-1.782681942E0,1.364490747E0,-7.466983795E-1
1.968210174E1,-6.883258820E-1,1.654847622E0,-1.146126747E0
1.970092820E1,-2.821760178E-1,2.110691547E0,-9.815139771E-1
1.971975466E1,4.323611259E-1,2.124972343E0,-1.648035049E-1
1.973858111E1,1.539186478E0,2.193920135E0,-8.779525757E-2
1.975740763E1,1.948725224E0,2.079371691E0,-3.127641678E-1
1.977623408E1,3.067022800E0,2.009414196E0,-9.281306267E-1
1.979506054E1,4.395453453E0,1.983052969E0,-3.241806030E-1
1.981388700E1,5.016268253E0,2.098125935E0,-5.665197372E-1
1.983270033E1,4.320768833E0,1.454837799E0,-2.829857349E0
1.985153992E1,4.445751190E0,5.391460657E-1,-6.671858788E0
1.987036638E1,4.637022018E0,-4.674328566E-1,-8.855288506E0
1.988919288E1,5.166338921E0,-5.628259778E-1,-9.867962837E0
1.990801934E1,4.947029591E0,3.548156619E-1,-1.108383656E1
1.992684580E1,2.490152359E0,5.040315986E-1,-1.161016083E1
1.994565914E1,-1.162997484E0,1.091693044E-1,-1.135173225E1
1.996449872E1,-4.619832516E0,1.100252748E0,-1.018234634E1
1.998332518E1,-6.433960438E0,2.324846268E0,-8.494682312E0
2.000215164E1,-6.762142658E0,3.010659933E0,-6.076904774E0
2.002097814E1,-6.268527031E0,2.130050421E0,-4.432153702E0
2.003980460E1,-3.786129475E0,1.709236860E0,-2.871381283E0
2.005861794E1,-1.025875568E0,2.777488708E0,-2.092833996E0
2.007745752E1,-7.536053658E-1,5.334243298E0,-1.217387676E0
2.009628398E1,-1.839863777E0,5.948894978E0,6.741132736E-1
2.011509736E1,-1.666880608E0,3.125629425E0,2.204932213E0
2.013393695E1,-8.917646408E-1,1.705358505E0,2.494834900E0
2.015276341E1,-1.691086769E0,2.672050476E0,2.244835138E0
2.017157674E1,-4.044145584E0,4.027579308E0,2.738776207E0
2.019041632E1,-5.470865726E0,1.959941387E0,3.827877045E0
2.020924283E1,-4.614863873E0,3.205714226E-1,2.677406788E0
2.022806929E1,-3.589126587E0,3.594055176E-1,1.727085829E0
2.024689575E1,-2.872495174E0,8.218984604E-1,1.090730906E0
2.026572221E1,-2.632760048E0,1.761161804E0,1.490195751E0
2.028454867E1,-2.190081120E0,1.941644669E0,2.129688978E0
2.030337518E1,-1.409142017E0,8.802795410E-1,2.082078457E0
2.032220164E1,-1.423682690E0,4.183750153E-1,2.320957661E0
2.034102809E1,-1.868249416E0,2.674398422E-1,1.851994634E0
2.035985455E1,-2.145449400E0,2.265567780E-1,1.357963920E0
2.037868101E1,-1.925765753E0,8.062963486E-1,6.123188734E-1
2.039750752E1,-1.458141327E0,9.366340637E-1,3.768865466E-1
2.041633398E1,-8.807239532E-1,1.336188316E0,7.094644904E-1
2.043516044E1,-1.845993996E-1,1.303834915E0,9.540093541E-1
2.045398690E1,4.958443642E-1,1.018769264E0,1.264031887E0
2.047281341E1,8.915932178E-1,1.040854454E0,1.491929412E0
2.049163986E1,8.380055428E-1,1.286431313E0,1.663445711E0
2.051046632E1,6.360719204E-1,1.477297783E0,1.795747638E0
2.052929278E1,5.993406773E-1,1.453873634E0,1.973389745E0
2.054811929E1,8.081896305E-1,1.174951553E0,1.612234950E0
2.056694575E1,9.753999710E-1,9.103145599E-1,1.365922928E0
2.058577221E1,1.112380743E0,7.526350021E-1,1.340851068E0
2.060459867E1,1.182955503E0,7.011060715E-1,1.273070335E0
2.062342518E1,1.234806776E0,4.720048904E-1,1.519178867E0
2.064225164E1,1.455852032E0,4.540071487E-1,1.709771991E0
2.066107809E1,1.245311022E0,7.757759094E-1,1.887442112E0
2.067990455E1,7.647716999E-1,1.018836021E0,2.022889137E0
2.069873106E1,3.756275177E-1,1.263595581E0,1.693690300E0
2.071755752E1,4.745149612E-2,1.003730774E0,1.305952787E0
2.073638398E1,-1.370038986E-1,8.549194336E-1,1.219283581E0
2.075521049E1,-5.777072906E-2,7.114048004E-1,1.358233333E0
2.077403695E1,5.859708786E-2,5.664491653E-1,1.436307430E0
2.079286341E1,4.995107651E-2,5.793628693E-1,1.229715228E0
2.081168986E1,5.038261414E-3,5.104236603E-1,7.775514722E-1
2.083051638E1,-8.979797363E-2,3.244161606E-1,4.530488253E-1
2.084934283E1,-8.348083496E-2,6.492662430E-1,4.413604736E-1
2.086816929E1,5.089192390E-1,6.959347725E-1,4.692946672E-1
2.088699580E1,1.344216824E0,1.247501373E0,1.101271749E0
2.090580914E1,3.045448303E0,1.399641037E0,3.066666126E0
2.092464872E1,4.601947784E0,1.851615906E0,4.488654137E0
2.094347518E1,4.668562412E0,1.234524250E0,3.730754614E0
2.096228856E1,3.324873209E0,8.907914162E-1,1.373550177E0
2.098112814E1,1.795391321E0,8.025064468E-1,-8.615376949E-1
2.099995460E1,6.677856445E-1,7.418918610E-1,-2.237344742E0
2.101878106E1,-2.948455811E-1,1.881205559E0,-3.320430279E0
2.103760757E1,-2.864723206E-1,2.377625942E0,-3.680311918E0
2.105643403E1,5.077784061E-1,2.632535458E0,-3.146308899E0
2.107526049E1,1.115310192E0,2.159339905E0,-2.562537670E0
2.109408700E1,1.542970181E0,1.689250469E0,-2.638589144E0
2.111291346E1,2.208662271E0,1.047002316E0,-2.806760550E0
2.113173992E1,2.561679840E0,3.343772888E-1,-2.684256792E0
2.115056643E1,3.064636230E0,2.904000282E-1,-2.325829983E0
2.116939288E1,3.775823593E0,1.862053871E-1,-1.833511591E0
2.118821934E1,3.493014336E0,6.170387268E-1,-1.725059509E0
2.120704585E1,2.376123905E0,1.091914177E0,-2.249187469E0
2.122587231E1,1.002244711E0,1.445043087E0,-3.305457354E0
2.124469877E1,-1.448754072E-1,1.984623909E0,-3.489875793E0
2.126352528E1,-8.748576641E-1,2.273342133E0,-3.310909748E0
2.128235174E1,-1.182448387E0,2.622757912E0,-3.367927074E0
2.130117820E1,-1.731480122E0,3.019691467E0,-3.611362934E0
2.132000471E1,-2.871888399E0,2.709430695E0,-3.894894123E0
2.133883117E1,-4.118501186E0,1.855288506E0,-3.870582104E0
2.135765762E1,-4.714684963E0,9.757680893E-1,-3.417716026E0
2.137648414E1,-5.755693913E0,-6.354885101E-1,-3.667930603E0
2.139531059E1,-6.495727539E0,-2.201415062E0,-1.990549564E0
2.141412398E1,-5.166029930E0,-2.572256088E0,5.044813156E-1
2.143296356E1,-4.471721172E0,-1.822157860E0,3.312044144E-1
2.145179002E1,-5.588082790E0,-5.728397369E-1,1.266002655E-1
2.147061653E1,-5.056678295E0,2.727146149E-1,2.390789986E-1
2.148944299E1,-3.072108507E0,1.438150406E0,5.735239983E-1
2.150826950E1,-1.497608423E0,1.787434578E0,7.748827934E-1
2.152709596E1,-6.997892857E-1,1.600272179E0,6.055569649E-1
2.154592242E1,-2.584931850E-1,1.442153931E0,1.082705498E0
2.156474893E1,1.311483383E-1,1.903773308E0,1.712954044E0
2.158357538E1,-1.133525372E-1,1.301915169E0,1.843950748E0
2.160240190E1,-4.515838623E-1,1.314990997E0,1.416542530E0
2.162122835E1,-1.026385427E0,1.760373116E0,5.681376457E-1
2.164005486E1,-1.659621000E0,2.110001564E0,-5.281939507E-1
2.165888132E1,-2.124254227E0,1.922500134E0,-9.538426399E-1
2.167770783E1,-2.056140900E0,1.586632252E0,-6.770319939E-1
2.169653429E1,-1.068393946E0,9.792456627E-1,-2.931356430E-1
2.171536075E1,2.918016911E-1,5.959987640E-1,1.680512428E-1
2.173418726E1,1.697275400E0,2.083487511E-1,7.849941254E-1
2.175301372E1,1.947621107E0,-4.389305115E-1,1.177497387E0
2.177184023E1,1.183928728E0,-1.479835987E0,1.188457966E0
2.179066669E1,1.700639725E-3,-2.448082447E0,4.647889137E-1
2.180949320E1,-8.778920174E-1,-2.647979736E0,-2.173309326E-1
2.182831966E1,-9.309203625E-1,-1.914513588E0,-8.565759659E-2
2.184714617E1,-3.025274277E-1,-1.804972649E0,3.612413406E-1
2.186597262E1,4.969066381E-1,-1.868307114E0,1.094199657E0
2.188479914E1,9.009010792E-1,-1.764293194E0,9.614820480E-1
2.190362559E1,1.456019878E-1,-1.272904873E0,-9.989118576E-2
2.192245210E1,-1.051567554E0,-1.159525871E0,-6.693181992E-1
2.194127856E1,-1.875387907E0,-1.131493092E0,-1.768088341E-1
2.196010507E1,-1.876600981E0,-1.003041744E0,9.777927399E-1
2.197893153E1,-1.416050196E0,-7.953000069E-1,1.616844177E0
2.199775804E1,-1.443479300E0,-7.078299522E-1,1.289605618E0
2.201658450E1,-2.006651878E0,-9.801497459E-1,9.715747833E-1
2.203541101E1,-2.084466457E0,-1.541034698E0,8.143038750E-1
2.205423747E1,-1.877844810E0,-1.829469681E0,5.604529381E-1
2.207306393E1,-1.775684357E0,-1.394323826E0,5.137538910E-1
2.209189044E1,-1.137214661E0,-1.214934349E0,-3.084678650E-1
2.211071690E1,-1.712465286E-1,-1.164352894E0,-1.077981949E0
2.212954341E1,9.195413589E-1,-9.278907776E-1,-5.328278542E-1
2.214836986E1,1.696366549E0,-6.657419205E-1,2.776536942E-1
2.216719638E1,1.931230068E0,-5.372114182E-1,7.395067215E-1
2.218602283E1,1.634556055E0,-6.874504089E-1,7.894735336E-1
2.220484934E1,9.382500648E-1,-4.637503624E-1,7.472591400E-1
2.222367580E1,1.605243683E-1,8.883142471E-2,4.894495010E-1
2.224250231E1,-6.519303322E-1,7.940006256E-2,4.195718765E-1
2.226132877E1,-7.522282600E-1,-4.492549896E-1,5.655717850E-1
2.228015528E1,-6.837778091E-1,-3.758249283E-1,9.533286095E-1
2.229898174E1,-6.561374664E-1,-1.432437897E-1,9.699497223E-1
2.231780820E1,-1.023892879E0,-4.318675995E-1,4.164915085E-1
2.233663471E1,-1.268446922E0,-4.894971848E-1,9.107313156E-1
2.235546122E1,-8.436179161E-1,-5.081548691E-1,1.629630089E0
2.237428768E1,-5.884618759E-1,-7.334995270E-1,1.134764194E0
2.239311419E1,-1.153592348E0,-3.885216713E-1,1.361895084E0
2.241194064E1,-1.476170540E0,-2.270474434E-1,1.554692745E0
2.243076716E1,-9.277436733E-1,-5.259599686E-1,1.225076199E0
2.244959361E1,-8.573174477E-2,-9.504756927E-1,6.919560432E-1
2.246842012E1,-1.029472351E-1,-8.040590286E-1,8.496127129E-1
2.248724658E1,-3.404164314E-1,-8.599581718E-1,5.837521553E-1
2.250607309E1,-5.543063879E-1,-1.297344685E0,-4.434823990E-1
2.252489955E1,-6.683734655E-1,-1.351067543E0,-1.374104977E0
2.254372606E1,-7.293198109E-1,-1.143953323E0,-1.487490177E0
2.256255252E1,-6.374682188E-1,-1.170034409E0,-1.472257614E0
2.258137903E1,-6.149156094E-1,-1.088314056E0,-1.945973873E0
2.260020549E1,-7.736598849E-1,-4.925117493E-1,-2.641274929E0
2.261903200E1,-1.134035349E0,2.183060646E-1,-3.004358768E0
2.263785846E1,-9.418282509E-1,4.582118988E-2,-2.393319607E0
2.265668497E1,-4.892808944E-2,-4.518365860E-1,-1.778638840E0
2.267551143E1,6.362419128E-1,-6.016697884E-1,-1.416474819E0
2.269433794E1,6.118642092E-1,-4.308400154E-1,-1.021097183E0
2.271316445E1,3.107773662E-1,7.952499390E-2,-1.154246330E0
2.273199091E1,-4.648080468E-2,3.386340141E-1,-1.423987865E0
2.275081742E1,-6.734329462E-2,8.342790604E-1,-1.509543896E0
2.276964388E1,-9.010949731E-2,1.750977039E0,-1.201601505E0
2.278847038E1,3.810860217E-4,1.645335197E0,-6.868615150E-1
2.280729690E1,1.145358533E-1,1.176124096E0,-4.459252357E-1
2.282612335E1,1.086653918E-1,5.639877319E-1,-6.096420288E-1
2.284494986E1,-2.190167308E-1,3.275203705E-1,-4.556508064E-1
2.286377632E1,-4.939000607E-1,3.698282242E-1,-4.550333023E-1
2.288260283E1,-8.516538143E-1,5.810899734E-1,-9.888644218E-1
2.290142929E1,-1.082749367E0,8.625526428E-1,-1.280096531E0
2.292025580E1,-8.613146544E-1,1.058514595E0,-1.198118925E0
2.293908231E1,-5.523016453E-1,1.308567047E0,-7.321839333E-1
2.295790877E1,-5.421059132E-1,1.387304306E0,-5.354847908E-1
2.297673528E1,-6.975277662E-1,1.624751091E0,-4.661746025E-1
2.299556174E1,-7.459843159E-1,1.640222549E0,-4.421463013E-1
2.301438825E1,-5.464957952E-1,1.624736786E0,-1.158571243E-2
2.303321476E1,-4.180555344E-1,1.596969604E0,3.818244934E-1
2.305204122E1,-5.280284882E-1,1.266795158E0,7.579731941E-1
2.307086773E1,-6.336870193E-1,8.604335785E-1,8.661284447E-1
2.308969419E1,-6.251289845E-1,2.712039948E-1,6.402373314E-1
2.310852070E1,-5.137979984E-1,-2.128133774E-1,8.232913017E-1
2.312734721E1,-2.428400517E-1,-4.279985428E-1,9.224903584E-1
2.314617367E1,-2.260222435E-1,-8.361558914E-1,7.300872803E-1
2.316500018E1,-3.214545250E-1,-9.354228973E-1,5.209167004E-1
2.318382664E1,-5.608909130E-1,-7.554359436E-1,1.005833149E-1
2.320265315E1,-7.639591694E-1,-5.367822647E-1,-1.526947021E-1
2.322147966E1,-7.169094086E-1,-4.367666245E-1,-4.076707363E-1
2.324030611E1,-7.003915310E-1,-3.039016724E-1,-4.316005707E-1
2.325913263E1,-7.091314793E-1,-2.442035675E-1,-5.673389435E-1
2.327795908E1,-6.690142155E-1,-1.549358368E-1,-1.018460512E0
2.329678559E1,-5.759792328E-1,-2.143907547E-1,-1.292979717E0
2.331561210E1,-4.495398998E-1,5.183696747E-2,-8.880760670E-1
2.333443856E1,-3.227083683E-1,3.087987900E-1,-5.370752811E-1
2.335326507E1,-2.986602783E-1,1.315689087E-1,-2.585551739E-1
2.337209158E1,-3.560366631E-1,4.064941406E-2,1.615984440E-1
2.339091804E1,-6.501438618E-1,-8.925437927E-3,5.592179298E-2
2.340974455E1,-1.233059645E0,-3.563404083E-2,-1.806628704E-1
2.342857101E1,-1.611548901E0,-2.152528763E-1,7.884550095E-2
2.344739752E1,-1.713015318E0,-4.256963730E-1,4.300341606E-1
2.346622403E1,-1.947198153E0,-1.696434021E-1,6.067214012E-1
2.348505049E1,-2.055828571E0,-1.343383789E-1,6.258435249E-1
2.350387700E1,-1.608071804E0,-1.983022690E-1,1.954903603E-1
2.352270351E1,-5.880265236E-1,-2.539424896E-1,-1.103398800E-1
2.354152997E1,8.422007561E-1,-1.900730133E-1,-3.991025686E-1
2.356034335E1,2.780097961E0,-3.077807426E-1,-1.671922565E0
2.357918299E1,4.401252747E0,-4.353222847E-1,-3.451290131E0
2.359800945E1,5.505235672E0,-2.942433357E-1,-2.968103170E0
2.361683596E1,6.548752785E0,-1.607446671E-1,-8.033500910E-1
2.363566247E1,7.394987106E0,-6.517982483E-2,7.244031429E-1
2.365448893E1,7.535805702E0,4.469347000E-1,1.435831308E0
2.367331544E1,7.105338097E0,4.388475418E-1,2.186132431E0
2.369214195E1,5.247879982E0,1.081954956E0,3.838617325E0
2.371096841E1,2.700454712E0,2.716724396E0,5.941166401E0
2.372978179E1,4.996550083E-1,3.293318748E0,6.299504757E0
2.374862143E1,4.279894829E-1,4.700283051E0,4.532806396E0
2.376744794E1,8.789348602E-2,5.514390945E0,3.666530609E0
2.378626132E1,6.669807434E-2,4.460330963E0,1.924377680E0
2.380510091E1,-2.221723557E0,4.155550957E0,2.619505227E-1
2.382392742E1,-4.876547337E0,3.489968300E0,-3.235499561E-1
2.384275393E1,-4.757158279E0,1.314067841E0,-1.418212771E0
2.386158038E1,-2.808362722E0,2.151674271E0,-4.139254093E-1
2.388040690E1,-5.986404419E-2,1.443304062E0,1.294474721E0
2.389923341E1,-1.744384289E0,8.096313477E-2,6.412069798E-1
2.391805992E1,-2.336879253E0,-2.661561966E-1,1.660989761E0
2.393688643E1,-2.673168898E0,-1.752147675E-1,3.595896006E0
2.395569981E1,-3.759639263E0,1.789144516E0,6.148932934E0
2.397453940E1,-3.888998985E0,2.893025398E0,7.933846474E0
2.399336591E1,-4.323137283E0,2.311660290E0,7.383800030E0
2.401219242E1,-4.655485153E0,3.005755424E0,4.985086441E0
2.403101893E1,-4.002756119E0,4.265008450E0,2.596808910E0
2.404984538E1,-3.778565407E0,6.917197227E0,2.599148750E-1
2.406865877E1,-3.323240757E0,8.660533905E0,-2.798818827E0
2.408749841E1,-2.793268442E0,7.962259769E0,-5.087237358E0
2.410632492E1,-2.886704445E0,4.809651375E0,-6.514599800E0
2.412513825E1,-3.210488319E0,3.349413395E0,-6.663798332E0
2.414397788E1,-2.429656506E0,2.173054218E0,-7.025677681E0
2.416280440E1,-2.079453230E0,1.438999891E0,-5.888681412E0
2.418161778E1,-1.034906864E0,1.463191032E0,-4.388556957E0
2.420045736E1,-1.054281712E0,2.637413263E0,-3.269902229E0
2.421928388E1,-2.615165234E0,2.232088089E0,-3.136576176E0
2.423811039E1,-2.669863224E0,1.402685881E0,-4.257418156E0
2.425693684E1,-1.139488935E0,5.669643879E-1,-2.999457836E0
2.427576335E1,-1.832956076E0,1.583384633E0,-2.577442169E0
2.429457674E1,-3.187983274E0,2.723631382E0,-4.556079388E0
2.431341638E1,-2.078685284E0,2.517584801E0,-4.941374779E0
2.433224283E1,-3.915165067E-1,1.946402431E0,-2.260468006E0
2.435105622E1,-4.159991741E-1,1.393764257E0,-1.478111267E0
2.436989585E1,9.675282240E-1,2.045416832E0,-3.871837616E0
2.438872236E1,1.413237810E0,1.596797705E0,-3.826429844E0
2.440754882E1,2.237713814E0,1.322662473E0,-2.854782581E0
2.442637533E1,2.522318125E0,1.937728643E0,-3.873062134E-1
2.444520184E1,1.030796289E0,2.112863064E0,4.568796158E-1
2.446401523E1,-1.469499588E0,2.236552715E0,-1.352324486E0
2.448285481E1,-2.100600481E0,2.022287846E0,-1.193988800E0
2.450168132E1,-5.386674404E-1,2.012923956E0,6.210613251E-2
2.452050783E1,3.199794292E-1,1.816202760E0,1.704120636E-1
2.453933434E1,-6.455542445E-1,1.748911858E0,-1.473331451E-2
2.455816080E1,-1.653188348E0,1.974688530E0,-5.900106430E-1
2.457698731E1,-2.104116440E0,1.734104156E0,-1.128944397E0
2.459581382E1,-2.219780445E0,1.194623828E0,-1.682920456E0
2.461464033E1,-2.134892225E0,8.876605034E-1,-2.206795216E0
2.463346684E1,-2.089279652E0,7.662501335E-1,-1.669013023E0
2.465229330E1,-2.033282042E0,4.098418951E-1,-2.918720245E-1
2.467111981E1,-2.452917576E0,8.994438052E-1,3.602466583E-1
2.468994632E1,-2.955598354E0,1.236915350E0,1.131486893E-1
2.470877283E1,-3.242539883E0,9.401397109E-1,-2.200374603E-1
2.472759934E1,-3.359171391E0,1.088493943E0,-7.076520920E-1
2.474642585E1,-3.099303246E0,1.370820284E0,-1.167820930E0
2.476525231E1,-1.604788303E0,2.282000542E0,-9.472370148E-1
2.478407882E1,-2.148548365E-1,2.790714264E0,-5.094757080E-1
2.480290533E1,2.163705230E-1,2.527803898E0,1.229858398E-2
2.482173184E1,1.259998083E0,2.568523884E0,-1.139377594E0
2.484055830E1,2.508109808E0,2.428665638E0,-9.689321518E-1
2.485938481E1,3.337099552E0,2.302835226E0,3.780174255E-2
2.487821132E1,4.110991478E0,1.528608680E0,8.263053894E-1
2.489703783E1,4.665925980E0,4.075703621E-1,9.510984421E-1
2.491586434E1,3.589364529E0,6.317295432E-1,1.018655777E0
2.493469085E1,2.548387527E0,7.966598868E-1,5.119485855E-1
2.495351731E1,2.422043324E0,9.351353645E-1,1.696384430E0
2.497234382E1,2.412334919E0,1.738362670E0,3.102119446E0
2.499117033E1,2.782144547E0,1.661239505E0,3.536308289E0
2.500999684E1,2.697407484E0,8.524512649E-1,2.911326408E0
2.502882335E1,1.558442116E0,5.670354366E-1,1.467797279E0
2.504764986E1,3.090415001E-1,5.131649971E-1,2.989778519E-1
2.506647632E1,-8.746025562E-1,4.443234205E-1,-3.147821426E-1
2.508530283E1,-1.017261744E0,1.409241855E-1,-9.946384430E-1
2.510412934E1,4.941670895E-1,7.873749733E-2,-7.833528519E-1
2.512295585E1,1.684574962E0,-4.676336050E-1,6.184234619E-1
2.514176924E1,2.928423405E0,-5.298960209E-1,1.560333252E0
2.516060888E1,3.833738327E0,-2.592964768E-1,1.569126129E0
2.517943538E1,2.142553091E0,7.096800208E-1,2.154858589E0
2.519826184E1,6.341625452E-1,2.005961239E-1,1.819982529E0
2.521708835E1,3.160693645E-1,-3.362624049E-1,2.997041702E0
2.523591486E1,-3.328864574E-1,-3.620254993E-2,1.867177010E0
2.525474138E1,-1.223639488E0,-3.005131483E-1,2.016189575E0
2.527356789E1,-1.625823975E0,-7.613503933E-1,2.012388229E0
2.529239440E1,-1.406556129E0,-7.024976015E-1,1.231249809E0
2.531122091E1,-7.126176357E-1,-5.336962938E-1,1.647030830E0
2.533004742E1,-1.130556822E0,3.071677685E-1,1.333248138E0
2.534887393E1,-1.068174839E-1,-1.227683783E0,-3.127861023E-2
2.536770044E1,6.842653751E-1,-6.265947819E-1,5.450439453E-2
2.538652690E1,1.764661670E0,2.745468616E-1,5.494623184E-1
2.540535341E1,2.074769735E0,-3.479502201E-1,-1.813383102E-1
2.542417992E1,8.700692654E-1,-1.173635483E0,-1.022393703E0
2.544300643E1,4.029703140E-2,-1.228636026E0,-6.162939072E-1
2.546183294E1,1.872406006E-1,-6.926105022E-1,-8.450140953E-1
2.548065945E1,2.284407616E-2,2.989256382E-1,-1.242438793E0
2.549948596E1,1.547245979E-1,4.092590809E-1,-1.081891060E0
2.551831247E1,9.485557079E-1,1.527786255E-2,-6.733880043E-1
2.553713898E1,1.461210966E0,-3.908395767E-2,-4.671750069E-1
2.555596549E1,1.011093378E0,5.159041882E-1,-4.276361465E-1
2.557479200E1,-1.424007416E-1,2.068939209E-1,-8.627071381E-1
2.559361846E1,-8.528530598E-1,-2.672724724E-1,-1.325741291E0
2.561244497E1,-9.490194321E-1,-2.654852867E-1,-1.575437069E0
2.563127148E1,-3.789868355E-1,-2.867412567E-1,-1.712312698E0
2.565009799E1,-2.739839554E-1,1.249470711E-1,-1.897853374E0
2.566892450E1,-1.253013849E0,2.967300415E-1,-2.554956436E0
2.568775101E1,-1.597909689E0,5.439996719E-1,-3.209673882E0
2.570657752E1,-1.321717501E0,4.946255684E-1,-3.732310772E0
2.572540403E1,-1.354794979E0,-2.172479630E-1,-3.976991653E0
2.574423054E1,-1.751539707E0,-2.953195572E-1,-4.530505657E0
2.576305705E1,-2.210146189E0,2.402791977E-1,-4.685207844E0
2.578188356E1,-3.123014927E0,5.047426224E-1,-4.280770779E0
2.580071007E1,-3.292222261E0,6.717996597E-1,-4.976147652E0
2.581953658E1,-3.565540552E0,3.977384567E-1,-3.722346306E0
2.583836309E1,-3.372693062E0,1.663138866E0,-1.905713558E0
2.585718955E1,-2.583271980E0,3.457168818E0,-7.220649719E-2
2.587600299E1,-2.982227802E-1,5.443558693E0,3.376885414E0
2.589484257E1,4.232051849E0,5.443351746E0,7.677368164E0
2.591366908E1,8.407612801E0,4.190759182E0,8.521595001E0
2.593248247E1,1.083638573E1,1.928726196E0,6.205271721E0
2.595132210E1,1.056608200E1,1.453213692E-1,2.355166435E0
2.597014861E1,9.123972893E0,3.599214554E-2,-2.234143734E0
2.598896200E1,8.900313377E0,1.001276493E0,-5.164870739E0
2.600780164E1,8.363168716E0,3.422636032E0,-3.361476421E0
2.602662814E1,5.908013344E0,4.947885990E0,1.151657104E-2
2.604545466E1,3.906028271E0,2.543452740E0,1.295416832E0
2.606428117E1,3.857810736E0,3.773401260E0,-4.961064816E0
2.608310768E1,1.150140047E0,5.030082703E0,1.584760666E0
2.610192106E1,3.051952124E0,3.761876106E0,1.895309448E0
2.612076070E1,1.610705376E0,7.090355873E0,-1.966823578E0
2.613958716E1,-2.634143829E0,5.032478809E0,-2.018761158E0
2.615841367E1,-4.765855789E0,3.250230312E0,-1.586702824E0
2.617724018E1,-3.140527010E0,3.584821939E0,-2.961189270E0
2.619606669E1,-1.798078060E0,2.949233294E0,-2.379298687E0
2.621489320E1,-2.988212109E-1,1.907392859E0,-1.588217258E0
2.623371971E1,-9.089112282E-2,1.330697536E0,-1.250486851E0
2.625254622E1,-2.018911839E-1,1.289884567E0,-3.063344955E-1
2.627137273E1,3.513207436E-1,1.839844346E0,1.166124344E-1
2.629019924E1,8.850519657E-1,2.655497551E0,3.353748322E-1
2.630902575E1,7.233331203E-1,3.072047710E0,4.884634018E-1
2.632785226E1,1.300911903E-1,3.014795780E0,7.211847305E-1
2.634667877E1,-7.769885063E-1,2.757451057E0,5.541839600E-1
2.636550528E1,-1.700377464E0,2.571231842E0,-7.835435867E-2
2.638433179E1,-2.037560940E0,2.654716253E0,-1.921458244E-1
2.640315830E1,-2.032300949E0,2.477784157E0,1.187014580E-1
2.642198481E1,-1.737359047E0,2.388052940E0,-1.574583054E-1
2.644081132E1,-1.503783226E0,1.949356556E0,-4.998159409E-2
2.645963778E1,-1.066342354E0,1.465804815E0,1.960039139E-1
2.647846429E1,-7.643623352E-1,1.574595451E0,5.757999420E-1
2.649729080E1,-9.884219170E-1,1.917982578E0,8.025994301E-1
2.651611731E1,-1.245974064E0,2.037236691E0,7.492489815E-1
2.653494382E1,-8.880138397E-1,1.283153057E0,7.538533211E-1
2.655377033E1,-3.593292236E-1,7.681751251E-1,2.697429657E-1
2.657259684E1,-1.227240562E-1,1.037365913E0,-2.274060249E-1
2.659142335E1,-4.258999825E-1,1.226464272E0,-9.996848106E-1
2.661024986E1,-1.120837688E0,6.443820000E-1,-1.338609219E0
2.662907638E1,-6.142773628E-1,3.486528397E-1,-1.569741726E0
2.664790288E1,7.746036053E-1,1.053564548E0,-2.761278152E0
2.666671627E1,8.946084976E-2,2.639689922E0,-3.815775394E0
2.668555591E1,-1.906555176E0,3.369534016E0,-3.202321291E0
2.670438242E1,-2.461523533E0,2.658113956E0,-1.750959396E0
2.672320893E1,-2.567187309E0,1.911298752E0,-1.471859932E0
2.674203544E1,-4.560828209E0,2.036143780E0,-3.403408051E0
2.676086195E1,-7.640361786E0,1.392892361E0,-4.315173149E0
2.677968846E1,-8.432143211E0,1.576720238E0,-2.628785133E0
2.679851497E1,-6.959606171E0,7.200703621E-1,-9.122095108E-1
2.681734148E1,-6.645411968E0,2.606325150E-1,3.458089828E-1
2.683616799E1,-6.515810966E0,-6.276893616E-2,1.245758533E0
2.685499450E1,-6.611481667E0,1.977424622E-1,2.346356869E0
2.687382101E1,-6.989549637E0,9.971046448E-2,2.455182314E0
2.689264752E1,-6.788957596E0,-2.778511047E-1,2.301394701E0
2.691147408E1,-5.786013603E0,8.860664368E-1,4.022268295E0
2.693030059E1,-6.700050354E0,6.256313324E-1,2.932393551E0
2.694911398E1,-7.882101059E0,2.813034058E-1,6.053633690E-1
2.696795361E1,-6.208236694E0,8.894863129E-1,-9.982898235E-1
2.698678013E1,-2.884358644E0,2.110283852E0,-3.015279770E-1
2.700560664E1,-1.476716280E0,2.416717529E0,4.621646404E-1
2.702443315E1,-1.261854172E0,2.751381874E0,5.372884274E-1
2.704325966E1,-1.108331442E0,2.268718719E0,1.432093382E0
2.706208617E1,-1.202544451E0,2.225916862E0,1.984491110E0
2.708091268E1,-1.415094614E0,2.508155823E0,2.290097237E0
2.709973919E1,-7.665233612E-1,3.332893372E0,2.501880884E0
2.711855263E1,1.081210136E0,3.953933716E0,2.878023863E0
2.713739221E1,3.121335030E0,4.143670082E0,3.108079910E0
2.715621877E1,4.497492313E0,3.774511337E0,2.923594236E0
2.717504528E1,4.997044086E0,4.118717194E0,2.825342655E0
2.719387179E1,4.925403595E0,4.201164246E0,2.298589945E0
2.721269830E1,4.513195992E0,3.293404579E0,1.651731968E0
2.723152481E1,3.929643631E0,2.738722801E0,1.084809065E0
2.725035132E1,3.332723379E0,2.719684601E0,6.211690903E-1
2.726917783E1,2.873448610E0,2.535912514E0,1.955597401E-1
2.728799127E1,2.584546089E0,6.466627121E-1,-8.322992325E-1
2.730683085E1,3.049073219E0,-1.321082115E0,-2.678124905E0
2.732565742E1,3.946604490E0,-2.509579659E0,-4.829946995E0
2.734447080E1,5.112772465E0,-2.420685768E0,-6.719089508E0
2.736331044E1,5.303680420E0,-2.044719696E0,-7.460646629E0
2.738213695E1,4.724664688E0,-1.840692520E0,-7.383288860E0
2.740096346E1,3.763661623E0,-5.706577301E-1,-7.285984516E0
2.741978997E1,2.735846519E0,1.454811096E-1,-6.671941757E0
2.743861648E1,1.568767428E0,-5.233955383E-2,-5.831651688E0
2.745744299E1,5.356584191E-1,-3.068408966E-1,-4.576480865E0
2.747626950E1,-1.091448545E0,-1.890048981E-1,-3.528872967E0
2.749509601E1,-2.686126709E0,-2.870845795E-1,-2.850024223E0
2.751392257E1,-3.403883696E0,-6.250762939E-2,-2.811420441E0
2.753274908E1,-3.589423180E0,1.509674072E0,-2.680359364E0
2.755157559E1,-3.193120003E0,2.735811234E0,-2.275923729E0
2.757040210E1,-2.449683189E0,3.112926483E0,-1.819340229E0
2.758922861E1,-2.254058123E0,2.878843307E0,-1.596022129E0
2.760805513E1,-3.004055738E0,2.255404472E0,-9.203565121E-1
2.762686851E1,-3.848271847E0,6.380558014E-1,-3.981499672E-1
2.764570814E1,-3.864800453E0,-1.021245956E0,3.604555130E-2
2.766453466E1,-3.221490383E0,-1.156126022E0,2.635502815E-1
2.768336122E1,-2.645801306E0,-7.367944717E-1,-4.327697754E-1
2.770218773E1,-2.427979231E0,-7.201614380E-1,-1.816747665E0
2.772101424E1,-2.524400711E0,-6.044979095E-1,-2.680020094E0
2.773984075E1,-2.469288826E0,-3.690338135E-1,-3.247303724E0
2.775866726E1,-2.624979496E0,6.270503998E-1,-3.212749720E0
2.777749377E1,-2.301466465E0,1.892305374E0,-3.426879644E0
2.779632028E1,-1.657120705E0,2.186977386E0,-3.466646433E0
2.781514679E1,-1.343189240E0,-5.747127533E-2,-2.968603373E0
2.783397330E1,-1.431241035E0,-2.083772182E0,-1.768228889E0
2.785279981E1,-7.756311893E-1,-2.659100056E0,-9.000518322E-1
2.787162632E1,-8.050460815E-1,-1.300346375E0,3.658452034E-1
2.789045289E1,-8.750410080E-1,-4.155206680E-1,1.196519375E0
2.790927940E1,-1.419305801E0,3.949174881E-1,1.093449831E0
2.792810591E1,-2.170029163E0,1.099787712E0,7.980518341E-1
2.794693242E1,-3.210076094E0,1.130766869E0,7.898681164E-1
2.796574580E1,-4.842034340E0,2.057504654E-1,1.302156687E0
2.798458544E1,-5.909379959E0,-7.613377571E-1,1.184166670E0
2.800341195E1,-6.251521111E0,-1.295878410E0,-1.641378403E-1
2.802223846E1,-5.715125084E0,-1.402551651E0,-6.839005947E-1
2.804106497E1,-4.547616005E0,-9.907479286E-1,1.813805103E-1
2.805989148E1,-2.823426247E0,-1.125429153E0,1.207406521E0
2.807870486E1,-1.179079533E0,-9.923315048E-1,2.051260948E0
2.809754450E1,-1.329231262E-1,-2.971310616E-1,2.088456631E0
2.811637101E1,2.587251663E-1,-2.819080353E-1,1.133009672E0
2.813519752E1,3.145503998E-2,-6.787438393E-1,2.456901073E-1
2.815402403E1,-3.067584038E-1,-7.781524658E-1,-1.732282639E-1
2.817285059E1,-3.298339844E-1,-7.143058777E-1,-6.338357925E-1
2.819167710E1,-2.691922188E-1,-4.364709854E-1,-4.982616901E-1
2.821050361E1,-1.617069244E-1,-2.179050446E-1,-7.275438309E-1
2.822933012E1,-5.493898392E-1,-4.502439499E-1,-9.581983089E-1
2.824815664E1,-1.168263912E0,-9.015612602E-1,-6.427319050E-1
2.826698314E1,-1.663410187E0,-1.095413208E0,-8.529393673E-1
2.828580966E1,-2.042952538E0,-6.077642441E-1,-1.211006165E0
2.830463617E1,-1.629618168E0,-4.497442245E-1,-1.466428518E0
2.832346268E1,-8.737330437E-1,-4.040093422E-1,-1.154666185E0
2.834228919E1,-3.452095985E-1,-3.127193451E-1,-1.369786263E-1
2.836111575E1,8.705186844E-2,-3.489685059E-1,6.197137833E-1
2.837994226E1,1.708087921E-1,-5.638651848E-1,1.016151905E0
2.839876877E1,1.369953156E-3,-7.534632683E-1,1.005412579E0
2.841759528E1,-2.326416969E-1,-5.406002998E-1,8.366146088E-1
2.843642179E1,-3.082189560E-1,-2.987461090E-1,5.640940666E-1
2.845524830E1,-1.747608185E-2,-3.137598038E-1,3.291916847E-1
2.847407481E1,4.870195389E-1,-4.768686295E-1,1.275529861E-1
2.849290132E1,6.018853188E-1,-4.898548126E-2,-2.596573830E-1
2.851172783E1,3.710780144E-1,5.884017944E-1,-2.160396576E-1
2.853055440E1,1.717619896E-1,8.023285866E-1,-2.966279984E-1
2.854938091E1,2.644186020E-1,1.827411652E-1,-3.458700180E-1
2.856820742E1,1.076217651E0,-5.551047325E-1,-6.222538948E-1
2.858703393E1,2.030977488E0,-6.348061562E-1,-5.416960716E-1
2.860586044E1,2.617971182E0,-7.058429718E-2,8.306379318E-1
2.862468695E1,3.062088490E0,7.021036148E-1,2.459446907E0
2.864351346E1,3.533544064E0,9.382767677E-1,3.498562813E0
2.866234002E1,2.971882820E0,8.126835823E-1,3.852196693E0
2.868116653E1,1.380688190E0,4.854145050E-1,2.972029209E0
2.869997992E1,-5.183510780E-1,6.975030899E-2,1.533041000E0
2.871881955E1,-1.945097446E0,-4.255638123E-1,3.457159996E-1
2.873764606E1,-2.385693550E0,-6.234073639E-1,-4.792699814E-1
2.875647257E1,-1.783916950E0,-4.655818939E-1,-1.069904804E0
2.877529914E1,-5.959792137E-1,-2.647290230E-1,-1.300518513E0
2.879412564E1,3.710508347E-1,-3.326082230E-2,-1.301342964E0
2.881295216E1,8.190722466E-1,1.382308006E-1,-1.074291706E0
2.883177867E1,8.560824394E-1,-8.315753937E-2,-4.440035820E-1
2.885060518E1,7.270245552E-1,-3.702030182E-1,1.153426170E-1
2.886943169E1,3.317065239E-1,-3.218431473E-1,2.152199745E-1
2.888825825E1,-1.808233261E-1,-2.439055443E-1,3.343596458E-1
2.890708476E1,-9.136509895E-1,-1.212935448E-1,5.480709076E-1
2.892591127E1,-1.213318348E0,-5.223417282E-2,6.228895187E-1
2.894473778E1,-1.250456810E0,1.336231232E-1,2.611694336E-1
2.896356429E1,-1.320859909E0,-1.699542999E-2,-1.053433418E-1
2.898239085E1,-1.068480492E0,-2.683129311E-1,-1.634516716E-1
2.900121736E1,-4.587931633E-1,-4.674668312E-1,-1.642527580E-1
2.902004388E1,1.503548622E-1,-4.304523468E-1,1.558656693E-1
2.903887039E1,6.579318047E-1,-6.969118118E-2,4.723477364E-1
2.905769690E1,1.357649565E0,1.296954155E-1,3.574290276E-1
2.907652341E1,1.838003159E0,1.724720001E-2,1.414656639E-1
2.909534997E1,1.846002340E0,1.323804855E-1,3.501558304E-2
2.911417648E1,2.246971130E0,5.797572136E-1,-1.296811104E-1
2.913300299E1,3.424596548E0,7.332239151E-1,-1.915431023E-1
2.915182950E1,4.396354198E0,5.234713554E-1,2.029972076E-1
2.917065601E1,5.363420486E0,3.350272179E-1,8.539371490E-1
2.918948257E1,6.271224976E0,9.197111130E-1,1.482745647E0
2.920830908E1,6.988656044E0,7.691788673E-1,1.786246777E0
2.922713559E1,6.805889130E0,3.580932617E-1,2.154766560E0
2.924596210E1,6.831397057E0,1.989979744E-1,2.583407402E0
2.926478867E1,7.426595688E0,5.055379868E-1,2.066028595E0
2.928361518E1,7.770299911E0,1.106300354E-1,9.920716286E-1
2.930244169E1,6.566006660E0,-8.424110413E-1,-2.623138428E-1
2.932125512E1,4.126259327E0,-9.584555626E-1,-1.076423168E0
2.934009476E1,1.301893234E0,-5.455665588E-1,-1.055645466E0
2.935892127E1,5.911819935E-1,-1.238021374E0,-1.045089245E0
2.937774778E1,1.771850467E0,-9.537596703E-1,-2.629356384E-1
2.939657429E1,1.867170215E0,2.095375061E-1,-7.996726036E-1
2.941540085E1,-1.873199940E-1,-2.635416985E-1,-1.693729401E0
2.943422736E1,-9.501588345E-1,1.307692528E-1,-1.892595768E0
2.945305388E1,-1.218651772E0,1.356564522E0,-2.080467701E0
2.947188044E1,-1.878423691E0,2.130027771E0,-1.463359833E0
2.949069382E1,-2.606744051E0,2.035965443E0,9.479241371E-1
2.950953346E1,-3.178014517E0,3.005067348E0,3.493061066E0
2.952836002E1,-4.625790119E0,5.116443157E0,5.428251743E0
2.954718653E1,-5.251402855E0,3.964708805E0,6.203934193E0
2.956601309E1,-5.081528187E0,2.224169254E0,5.842523575E0
2.958483960E1,-5.532581329E0,1.130581856E0,4.257975101E0
2.960365299E1,-6.317419529E0,1.528501511E-2,1.673975468E0
2.962249263E1,-7.357993126E0,-9.910621643E-1,1.927995682E-2
2.964131919E1,-7.754093647E0,-6.247835159E-1,-1.577347755E0
2.966014570E1,-6.325822830E0,6.280488968E-1,-1.917157173E0
2.967897221E1,-4.918838501E0,1.534387589E0,-1.205682755E0
2.969779877E1,-4.224491596E0,1.435582161E0,-1.256499767E0
2.971662528E1,-4.875555992E0,2.253092289E0,-1.731917858E0
2.973545179E1,-5.560341835E0,1.203350067E0,-3.028800011E0
2.975427835E1,-4.401802063E0,1.201633930E0,-2.922086716E0
2.977310486E1,-2.690129757E0,1.517776012E0,-1.819070816E0
2.979193138E1,-2.165747643E0,2.663021564E0,-5.135822296E-1
2.981075788E1,-1.492210865E0,2.416931868E0,-6.580448151E-1
2.982958445E1,-1.701266766E0,2.658811569E0,-5.553517342E-1
2.984841096E1,-2.308040619E0,2.874526739E0,-3.815588951E-1
2.986723747E1,-3.659610748E0,2.561815739E0,-1.257008553E0
2.988606403E1,-2.914472580E0,3.194842339E0,-1.359835625E0
2.990489054E1,-2.390431404E0,5.234999657E0,-1.528840542E0
2.992371705E1,-2.608994007E0,5.740057468E0,-1.826404095E0
2.994254361E1,-2.536427498E0,4.981356621E0,-2.035020351E0
2.996137013E1,-2.045172691E0,4.584116459E0,-2.083901405E0
2.998019669E1,-1.244809628E0,4.446499825E0,-1.559733868E0
2.999902320E1,-1.116206169E0,3.983551264E0,-1.452470779E0
3.001784971E1,-4.597926140E-1,3.731137753E0,-2.000077724E0
3.003667627E1,1.035342693E0,3.788558722E0,-1.651438713E0
3.005550278E1,9.729180336E-1,3.739876986E0,-4.516544342E-1
3.007432929E1,2.556180954E-2,3.232803822E0,-7.638311386E-2
3.009315580E1,-1.277637005E0,2.096651793E0,3.131814003E-1
3.011198236E1,-2.518901825E0,1.636487007E0,-1.069488525E-1
3.013080888E1,-2.607362747E0,1.637903690E0,-8.946285248E-1
3.014963539E1,-6.023197174E-1,2.886008739E0,-7.476329803E-2
3.016846195E1,8.292675018E-1,3.212914228E0,1.082399845E0
3.018728846E1,7.460961342E-1,2.573321819E0,1.134821892E0
3.020611497E1,3.327107430E-1,1.777723312E0,5.140147209E-1
3.022494148E1,6.723031998E-1,1.971661091E0,1.442642212E-1
3.024376804E1,1.129469872E0,1.988613367E0,-5.180692673E-2
3.026259455E1,9.101128578E-1,1.730177879E0,1.263022423E-1
3.028142106E1,1.904072762E-1,1.396385670E0,-2.938747406E-2
3.030024757E1,2.935638428E-1,1.396092415E0,-6.296434402E-1
3.031907414E1,6.479811668E-1,1.485886097E0,-6.726737022E-1
3.033790064E1,6.413102150E-1,1.683701038E0,-3.016204834E-1
3.035672716E1,4.453730583E-1,1.628631115E0,1.909246445E-1
3.037555372E1,6.495852470E-1,1.274377346E0,3.693680763E-1
3.039438023E1,7.496800423E-1,8.244099617E-1,1.250162125E-1
3.041320674E1,3.270864487E-1,1.142975807E0,-6.991744041E-1
3.043203325E1,-1.594648361E-1,1.465516567E0,-1.124605179E0
3.045085981E1,-4.419450760E-1,1.253127098E0,-9.583177567E-1
3.046968632E1,-2.373189926E-1,1.122467518E0,-1.029140472E0
3.048851283E1,1.067481041E-1,1.134145737E0,-1.164278984E0
3.050733934E1,1.514148712E-1,1.733612537E0,-1.203789234E0
3.052616591E1,-3.381628990E-1,1.691790581E0,-1.154734135E0
3.054499242E1,-6.752529144E-1,1.030830860E0,-1.191491604E0
3.056381893E1,-4.489235878E-1,5.423827171E-1,-1.089999199E0
3.058264549E1,-2.924551964E-1,1.775636673E-1,-9.690318108E-1
3.060147200E1,-5.305285454E-1,1.428542137E-1,-6.209211349E-1
3.062029851E1,-9.758224487E-1,6.108760834E-3,-5.657434464E-1
3.063912502E1,-9.681246281E-1,2.027359009E-1,-8.108663559E-1
3.065795158E1,-5.380547047E-1,4.796833992E-1,-8.957629204E-1
3.067677809E1,-2.539784908E-1,6.487607956E-1,-6.564617157E-1
3.069560460E1,-4.732203484E-1,1.061685085E0,-5.312047005E-1
3.071443117E1,-5.182163715E-1,1.492920399E0,-6.241750717E-1
3.073325768E1,-2.996814251E-1,1.462665081E0,-2.825293541E-1
3.075208419E1,1.883177757E-1,1.112700462E0,2.953100204E-2
3.077091075E1,6.012198925E-1,1.213253498E0,2.500886917E-1
3.078973726E1,1.528308392E-1,1.504135609E0,5.049486160E-1
3.080856377E1,-4.910895824E-1,1.229206562E0,7.361087799E-1
3.082739033E1,-3.233410120E-1,6.490244865E-1,5.226535797E-1
3.084621684E1,1.962921619E-1,6.168794632E-2,6.355648041E-1
3.086504335E1,5.787657499E-1,-3.807692528E-1,7.643671036E-1
3.088386986E1,5.274772644E-2,1.482648849E-1,8.286418915E-1
3.090269643E1,-4.710278511E-1,6.842994690E-1,5.236053467E-1
3.092152294E1,-4.413664341E-1,5.276131630E-1,3.323659897E-1
3.094034945E1,4.366433620E-2,2.873096466E-1,3.432636261E-1
3.095917601E1,6.299981475E-1,2.980184555E-1,5.425577164E-1
3.097800252E1,1.133586764E0,5.622575283E-1,1.338391304E0
3.099682903E1,8.893136978E-1,-1.453971863E-2,1.372529030E0
3.101565559E1,5.039254427E-1,-4.758229256E-1,6.241550446E-1
3.103448210E1,5.499016047E-1,-7.108120918E-1,3.093719482E-3
3.105330861E1,3.046904206E-1,-9.596385956E-1,2.386274338E-1
3.107213518E1,2.564774752E-1,-9.615979195E-1,3.495559692E-1
3.109096169E1,1.221936941E-1,-1.057919502E0,1.820192337E-1
3.110978820E1,-1.938132048E-1,-1.310906410E0,2.401685715E-1
3.112861471E1,-4.318451881E-2,-7.634000778E-1,3.585691452E-1
3.114744127E1,7.154989839E-1,-5.539464951E-2,7.806968689E-1
3.116626778E1,6.772738695E-1,1.514689922E-1,1.014778137E0
3.118509429E1,-6.576925516E-1,4.822828770E-1,-1.688241959E-1
3.120392085E1,-1.695381641E0,4.682624340E-1,-1.143337250E0
3.122274736E1,-1.880946398E0,5.369210243E-1,-1.496499062E0
3.124157388E1,-1.580226421E0,7.849619389E-1,-1.264412880E0
3.126040044E1,-8.150196075E-1,1.038505077E0,-5.071849823E-1
3.127922695E1,-3.134846687E-1,1.202083588E0,6.472635269E-1
3.129805346E1,3.144088984E-1,1.332564116E0,1.170624733E0
3.131688002E1,3.936030865E-1,8.296148777E-1,8.948307037E-1
3.133570653E1,-6.692159176E-1,8.450083733E-1,4.982452393E-1
3.135453309E1,-7.298462391E-1,8.084144592E-1,9.196472168E-2
3.137335960E1,4.115700722E-2,9.933066368E-1,4.262447357E-1
3.139218611E1,9.371663332E-1,1.084508896E0,3.933687210E-1
3.141101268E1,1.425848246E0,1.007301092E0,-1.807155609E-1
3.142983919E1,7.685065269E-1,5.878887177E-1,-7.277231216E-1
3.144866570E1,3.841284513E-1,1.746401787E-1,-1.227608204E0
3.146749226E1,1.594840527E0,3.876326084E-1,-1.090237141E0
3.148631877E1,2.102638483E0,4.310438633E-1,-2.003707886E-1
3.150514528E1,1.706696033E0,2.946767807E-1,-1.007680893E-1
3.152397184E1,1.451429248E0,1.276814938E-1,-6.535911560E-1
3.154279835E1,1.584043145E0,2.667915821E-1,-3.077917099E-1
3.156162492E1,1.460975170E0,4.080379009E-1,1.342115402E-1
3.158045143E1,1.008347750E0,4.117298126E-2,-4.552106857E-1
3.159927794E1,5.809834003E-1,-4.909682274E-2,-1.142240524E0
3.161810450E1,1.002012968E0,6.245899200E-2,-1.520268440E0
3.163693101E1,1.341465473E0,3.659892082E-2,-1.186660290E0
3.165575757E1,1.399690628E0,7.204627991E-2,-3.520631790E-1
3.167458408E1,2.382367849E0,1.177344322E-1,1.031732559E-1
3.169341065E1,3.744710445E0,2.530161142E-1,-1.731128693E-1
3.171223716E1,3.780177593E0,5.468595028E-1,-1.258749962E-1
3.173106372E1,4.697460651E0,8.453471065E-1,1.223927975E0
3.174987710E1,7.109413147E0,1.647020698E0,3.018443584E0
3.176871674E1,9.716491699E0,2.206367970E0,9.448099136E-1
3.178754330E1,8.056687355E0,2.799925089E0,-2.591095448E0
3.180635674E1,3.883508921E0,3.398816109E0,-1.397039890E0
3.182519638E1,-6.727542877E-1,1.890338898E0,4.049983025E-1
3.184402288E1,-3.914709091E0,4.188342690E-1,9.924249649E-1
3.186284945E1,-4.049395561E0,5.952927470E-2,2.398571968E-1
3.188167596E1,-3.083254814E0,-1.972073317E-1,-9.418120384E-1
3.190050247E1,-3.095817566E0,-8.808337450E-1,-1.624077082E0
3.191932903E1,-3.734604836E0,-1.465165377E0,-1.823551893E0
3.193815554E1,-4.643992424E0,-1.524352551E0,-1.973791599E0
3.195698210E1,-4.816471100E0,-1.380394220E0,-2.938564062E0
3.197580861E1,-4.432847977E0,-9.012396336E-1,-3.105928659E0
3.199463518E1,-4.344997406E0,-7.592823505E-1,-1.823457003E0
3.201346169E1,-3.597587585E0,-1.492721677E0,-1.406905651E0
3.203227513E1,-1.892124176E0,-1.793203592E0,-2.461917877E0
3.205111476E1,-6.704602242E-1,-1.387398481E0,-2.330842018E0
3.206994127E1,-4.322094917E-1,-1.006560087E0,-1.238525391E0
3.208876778E1,-1.009411335E0,-9.414763451E-1,-8.515548706E-1
3.210759434E1,-1.629120827E0,-4.089541435E-1,-8.764004707E-1
3.212642085E1,-1.813802719E0,3.284244537E-1,-1.381743193E0
3.214524742E1,-1.920669556E0,1.308005810E0,-1.652077198E0
3.216407393E1,-1.950608253E0,1.119551182E0,-7.289967537E-1
3.218290049E1,-1.497809887E0,7.565369606E-1,-7.033226490E-1
3.220172700E1,-9.728074074E-1,6.636886597E-1,-1.364850044E0
3.222055351E1,-6.248550415E-1,4.075131416E-1,-1.779964209E0
3.223938007E1,-7.564020157E-2,6.571087837E-1,-8.640875816E-1
3.225820658E1,3.592042923E-1,1.062521458E0,-1.886136532E-1
3.227703315E1,1.118955612E-1,1.391786575E0,-3.901956081E-1
3.229585966E1,-2.822244167E-1,1.974865913E0,1.224343777E-1
3.231468617E1,-2.668673992E-1,2.148057938E0,3.887314796E-1
3.233351273E1,-7.707929611E-1,1.722850800E0,9.840056896E-1
3.235233924E1,-1.746844292E0,1.165834427E0,1.048662663E0
3.237116580E1,-2.432247639E0,8.850631714E-1,8.910188675E-1
3.238999231E1,-2.349073172E0,8.363323212E-1,1.452526331E0
3.240881888E1,-1.439518690E0,5.697669983E-1,2.485775948E0
3.242764539E1,-3.271865845E-1,7.349109650E-1,3.465476036E0
3.244647195E1,3.204786777E-1,7.535419464E-1,3.769559145E0
3.246529846E1,3.741554022E-1,5.994682312E-1,3.601619959E0
3.248412502E1,1.457903385E-1,5.484790802E-1,3.016906261E0
3.250295153E1,-2.379775047E-1,6.267738342E-1,1.948979616E0
3.252177809E1,-2.089006901E-1,9.219007492E-1,1.192689896E0
3.254060460E1,1.468040943E-1,9.602642059E-1,4.362738132E-1
3.255943111E1,4.045530558E-1,6.308269501E-1,-5.226998329E-1
3.257825768E1,8.181355000E-1,5.221271515E-1,-7.448740005E-1
3.259708419E1,1.196721435E0,2.614011765E-1,-9.703193903E-1
3.261591075E1,1.172973156E0,3.704929352E-2,-9.838173389E-1
3.263473726E1,1.029427767E0,1.847925186E-1,-1.071728706E0
3.265356382E1,8.068810105E-1,4.580869675E-1,-1.116940141E0
3.267239033E1,6.165787578E-1,7.232894897E-1,-1.456195116E0
3.269121690E1,2.448109388E-1,1.138818741E0,-1.214346766E0
3.271004341E1,-1.265690327E-1,1.473825455E0,-8.279414177E-1
3.272886997E1,-3.570317030E-1,1.251770973E0,-2.158308029E-1
3.274769648E1,-3.523378372E-1,6.617031097E-1,1.295328140E-1
3.276652304E1,-3.514573574E-1,-5.869674683E-2,1.483383179E-1
3.278534955E1,-5.126846433E-1,-6.907930374E-1,2.118821144E-1
3.280417606E1,-4.593601227E-1,-1.324482918E0,1.030373573E-1
3.282300262E1,-1.697589159E-1,-1.496589184E0,-7.003855705E-2
3.284182914E1,-1.315146685E-2,-7.616863251E-1,8.599305153E-2
3.286065570E1,2.333693504E-1,2.553863525E-1,2.092688084E-1
3.287948221E1,3.458525240E-1,8.774967194E-1,2.121400833E-2
3.289830877E1,2.482526898E-1,1.037461281E0,-9.845066071E-2
3.291713528E1,2.392627597E-1,6.392698288E-1,-1.513657570E-1
3.293596184E1,-6.285464764E-2,8.536911011E-2,-1.843738556E-1
3.295478835E1,-2.506527305E-1,-4.114742279E-1,-6.619000435E-2
3.297361492E1,-1.527178288E-2,-7.066354752E-1,-4.204964638E-2
3.299244143E1,1.904615313E-1,-8.037843704E-1,5.779385567E-2
3.301126794E1,5.031466484E-2,-8.405933380E-1,-1.017284393E-2
3.303009450E1,-1.121971905E-1,-8.234987259E-1,-2.049274445E-1
3.304892101E1,-1.581782699E-1,-8.259305954E-1,-7.432646751E-1
3.306774757E1,-3.530144393E-1,-8.212785721E-1,-1.487327814E0
3.308657408E1,-4.296274185E-1,-1.082830429E0,-1.780582070E0
3.310540064E1,-6.081597805E-1,-1.237927437E0,-1.726315737E0
3.312422716E1,-6.682190299E-1,-1.437044144E0,-1.508465767E0
3.314305372E1,-6.331236362E-1,-1.546817780E0,-1.018773079E0
3.316188023E1,-5.642266273E-1,-1.327469826E0,-2.917339802E-1
3.318070679E1,-4.338797927E-1,-9.370155334E-1,3.294854164E-1
3.319953330E1,-5.313979387E-1,-6.220808029E-1,5.211257935E-1
3.321835986E1,-6.865039468E-1,-1.452980042E-1,1.038829327E0
3.323718638E1,-6.162872314E-1,1.704158783E-1,1.025336742E0
3.325601294E1,-5.605236292E-1,3.065071106E-1,1.202063560E0
3.327483945E1,-3.118104935E-1,2.564973831E-1,1.412467003E0
3.329366601E1,4.683244228E-2,2.744302750E-1,1.434029460E0
3.331249257E1,8.375018835E-3,2.128810883E-1,1.357708693E0
3.333131908E1,-3.169409633E-1,1.741018295E-1,1.278249621E0
3.335014565E1,-4.073771238E-1,3.097829819E-1,9.152208567E-1
3.336897216E1,-2.186373472E-1,4.125404358E-1,8.067212105E-1
3.338779872E1,-5.888336897E-2,2.038345337E-1,7.655978203E-1
3.340662523E1,-9.645736217E-2,1.033191681E-1,8.604670763E-1
3.342545179E1,-1.379728317E-1,-8.334159851E-3,8.372050524E-1
3.344427830E1,4.272580147E-3,-5.166053772E-3,8.261648417E-1
3.346310486E1,3.760830760E-1,-5.058670044E-2,1.062109947E0
3.348193138E1,4.528560042E-1,7.906627655E-2,1.162112474E0
3.350075794E1,2.593846321E-1,3.803281784E-1,1.272689819E0
3.351958450E1,-1.533753872E-1,9.111442566E-1,1.190583229E0
3.353841101E1,-4.157369137E-1,1.288954735E0,8.409998417E-1
3.355723757E1,-5.076123476E-1,1.086436272E0,4.426360130E-1
3.357606408E1,-5.071643591E-1,6.336107254E-1,4.248988628E-1
3.359489064E1,-2.806690931E-1,1.474132538E-1,2.170538902E-1
3.361371721E1,1.075463295E-1,-4.528617859E-1,-2.438886166E-1
3.363254372E1,2.845259905E-1,-6.847782135E-1,-5.570719242E-1
3.365137028E1,4.547117949E-1,-5.907459259E-1,-7.423291206E-1
3.367019684E1,4.554196596E-1,-1.946573257E-1,-4.609024525E-1
3.368902335E1,3.021757603E-1,1.312150955E-1,-2.058188915E-1
3.370784992E1,1.736831665E-2,-2.107400894E-1,-7.505989075E-2
3.372667648E1,-2.790292501E-1,-6.129274368E-1,-9.856891632E-2
3.374550299E1,-2.926684618E-1,-9.731111526E-1,1.019937992E-1
3.376432955E1,-2.765505314E-1,-9.121532440E-1,6.241667271E-1
3.378315606E1,-1.590219736E-1,-5.448265076E-1,8.668251038E-1
3.380198262E1,-1.392052174E-1,9.766712189E-1,9.769661427E-1
3.382080919E1,7.866859436E-3,2.346352577E0,1.091957092E0
3.383963575E1,1.339074373E-1,2.940536499E0,8.282642365E-1
3.385846226E1,6.509161592E-1,2.596708298E0,9.246926308E-1
3.387728882E1,1.293685913E0,1.378581047E0,8.262417316E-1
3.389611538E1,1.830449104E0,1.591968536E-1,5.659782887E-1
3.391494195E1,2.210212708E0,-1.010131836E-1,3.091619015E-1
3.393376846E1,2.352176428E0,-3.176479340E-1,2.666354179E-2
3.395259502E1,2.354050636E0,-3.709869385E-1,-3.722527027E-1
3.397142158E1,2.153696537E0,1.016902924E-2,-6.720576286E-1
3.399024814E1,1.796983957E0,4.485349655E-1,-1.043406963E0
3.400907471E1,1.335637569E0,9.069299698E-1,-1.320153952E0
3.402790122E1,8.802024722E-1,7.612714767E-1,-1.669786096E0
3.404672778E1,6.000149250E-1,-1.784076691E-1,-1.988120794E0
3.406555434E1,7.866613269E-1,-9.675426483E-1,-2.051492691E0
3.408438091E1,1.055567741E0,-1.369328976E0,-2.265756607E0
3.410320747E1,1.209163070E0,-1.231104851E0,-2.504724503E0
3.412203403E1,1.424600005E0,-6.625165939E-1,-2.805287123E0
3.414086054E1,1.842577219E0,1.812076569E-2,-3.091848373E0
3.415968710E1,2.437784433E0,2.137641907E-1,-2.963687897E0
3.417851367E1,2.609411001E0,-5.140018463E-2,-2.796064854E0
3.419734023E1,2.140951872E0,-7.144355774E-2,-2.802675724E0
3.421616679E1,1.794002175E0,-2.916269302E-1,-2.872515440E0
3.423499335E1,1.470439434E0,9.316539764E-2,-2.739939928E0
3.425381992E1,1.497232556E0,3.861198425E-1,-2.110476732E0
3.427264648E1,1.374472618E0,3.639793396E-1,-1.183817148E0
3.429147304E1,1.017274380E0,-3.116960526E-1,-7.896938324E-1
3.431029960E1,5.183543563E-1,-7.637882233E-1,-5.509458780E-1
3.432912617E1,2.544596195E-1,-6.004943848E-1,-2.228498459E-3
3.434795268E1,-7.823169231E-3,5.441217422E-1,4.872568846E-1
3.436677929E1,-1.015639305E-1,1.976957321E0,8.889948130E-1
3.438560585E1,5.551314354E-1,2.351845741E0,9.882893562E-1
3.440443236E1,1.525261879E0,2.574011803E0,1.372420430E0
3.442325893E1,2.101665020E0,2.582764626E0,2.262757301E0
3.444208554E1,2.099736214E0,2.328835487E0,2.516895056E0
3.446091210E1,1.735895872E0,1.770161629E0,1.930492282E0
3.447973867E1,1.148616552E0,1.456803322E0,1.102532625E0
3.449856523E1,4.875426888E-1,1.155704498E0,7.470978498E-1
3.451739179E1,-1.714848280E-1,1.237494469E0,8.320947886E-1
3.453621835E1,-8.133230209E-1,8.164653778E-1,5.827217102E-1
3.455504492E1,-1.485204935E0,1.962957382E-1,-7.933175564E-2
3.457387148E1,-2.412114143E0,-2.903146744E-1,-2.580404282E-3
3.459269804E1,-3.353622437E0,-3.741273880E-1,9.026962519E-1
3.461152460E1,-3.589533567E0,-6.486358643E-1,1.799337626E0
3.463035117E1,-2.995821476E0,-1.203762054E0,2.874055386E0
3.464917773E1,-2.499935865E0,-1.659326553E0,2.624981880E0
3.466800429E1,-2.246915340E0,-1.726154804E0,1.584210873E0
3.468683085E1,-1.896119356E0,-1.052239418E0,1.264741421E0
3.470565747E1,-9.556801915E-1,7.070159912E-2,5.075743198E-1
3.472448403E1,-6.642669439E-2,1.328951836E0,-1.047787666E-1
3.474331059E1,4.238153696E-1,1.879584312E0,-1.777973175E-1
3.476213716E1,5.069419146E-1,1.723243713E0,-3.590059280E-1
3.478096377E1,2.931120992E-1,1.724972725E0,-8.797001839E-1
3.479979033E1,-2.752008438E-1,1.655286789E0,-1.096191883E0
3.481861690E1,-8.700479269E-1,1.340293884E0,-1.065746784E0
3.483744346E1,-1.078037500E0,4.686298370E-1,-1.686129332E0
3.485627002E1,-2.479111671E0,-6.219339371E-1,-1.867991686E0
3.487509664E1,-2.669603825E0,-1.847763062E-1,3.996734619E-1
3.489392320E1,-2.063501596E0,-1.073320866E0,8.435840607E-1
3.491274976E1,-3.187682152E0,-8.023357391E-1,-2.908067703E-1
3.493157638E1,-3.958858728E0,1.195907593E-1,-1.387195587E0
3.495040294E1,-3.507330656E0,4.502496719E-1,-1.473131895E0
3.496922950E1,-2.484316111E0,7.354831696E-1,-5.598449707E-1
3.498805611E1,-1.428828239E0,7.969989777E-1,3.313398361E-1
3.500688268E1,-1.670610666E0,3.443021774E-1,1.173295975E-1
3.502570924E1,-2.789011478E0,3.515195847E-1,4.312853813E-1
3.504453585E1,-3.155390739E0,1.004174709E0,3.785319328E-1
3.506336242E1,-2.454747200E0,1.126070499E0,5.505790710E-1
3.508218898E1,-2.129288197E0,1.219637394E0,1.782015324E0
3.510101559E1,-1.974127769E0,7.389278412E-1,2.046916485E0
3.511984216E1,-2.046511173E0,1.116695404E-1,8.094115257E-1
3.513866872E1,-2.441336632E0,9.251165390E-1,1.127653122E-1
3.515749533E1,-1.923876286E0,1.598779678E0,-8.234796524E-1
3.517632190E1,-1.028520584E0,2.335274220E0,-9.750928879E-1
3.519513538E1,9.903554916E-1,3.236738205E0,-1.020991325E0
3.521397507E1,3.500058174E0,3.514009237E0,-1.982832670E0
3.523280169E1,3.189446688E0,3.107606411E0,1.784019470E-1
3.525161512E1,1.506810665E0,2.105733871E0,4.498019218E-1
3.527045481E1,1.027292252E0,6.182327271E-1,-1.906257629E0
3.528928143E1,3.081684113E-1,7.623486519E-1,-2.917170525E0
3.530810799E1,3.049440384E-1,1.418431759E0,-2.687926531E0
3.532693460E1,1.271286964E0,1.373555422E0,-1.989892483E0
3.534576117E1,1.833854198E0,9.976484776E-1,-1.567831516E0
3.536458778E1,1.778212070E0,4.363344908E-1,-1.301190853E0
3.538341434E1,8.880681992E-1,3.311336040E-1,-7.048358917E-1
3.540224096E1,-3.342981339E-1,5.231075287E-1,-8.535909653E-2
3.542105445E1,-1.772517681E0,7.913722396E-1,-1.672344208E-1
3.543989414E1,-2.852972031E0,6.019294858E-1,-4.631533623E-1
3.545872070E1,-3.469648838E0,3.740937710E-1,-1.252976894E0
3.547754731E1,-4.559418678E0,3.929482698E-1,-1.408556938E0
3.549637393E1,-4.909812927E0,3.486112952E-1,-2.476585388E0
3.551520049E1,-4.360605717E0,1.071400404E0,-3.004199266E0
3.553401398E1,-3.089781284E0,2.191155910E0,-2.571944237E0
3.555285367E1,-1.307064533E0,3.133434296E0,-1.733413696E0
3.557168028E1,8.068442345E-1,4.013089180E0,-2.116903305E0
3.559050684E1,2.120433807E0,5.196951866E0,-2.263642311E0
3.560933346E1,2.617333889E0,5.981910706E0,-1.246294975E0
3.562816007E1,3.449161053E0,5.765667915E0,2.950625420E-1
3.564698664E1,4.661013126E0,4.540223122E0,8.379592896E-1
3.566581325E1,5.190094471E0,3.225435495E0,1.866127491E0
3.568463981E1,4.090089321E0,2.455307484E0,2.649792194E0
3.570345330E1,1.975111485E0,1.914567232E0,1.985878468E0
3.572229304E1,-8.122110367E-2,1.143890619E0,1.313107014E0
3.574111960E1,-1.381370068E0,4.785776138E-1,7.820096016E-1
3.575994622E1,-1.930963039E0,2.546386719E-1,-2.382659912E-2
3.577877283E1,-1.243581772E0,4.414365292E-1,-2.265048027E-1
3.579759945E1,-4.063978195E-1,7.851059437E-1,3.737206459E-1
3.581642601E1,3.158607483E-1,1.493021965E0,7.597713470E-1
3.583525262E1,3.691248894E-1,1.823273182E0,2.505936623E-1
3.585407924E1,5.964946747E-1,1.568583965E0,3.862333298E-2
3.587290585E1,1.168779850E0,1.453595400E0,-1.963586807E-1
3.589173242E1,2.285731316E0,1.802858829E0,-1.112704277E0
3.591055903E1,3.851182938E0,2.901916742E0,-2.398109436E-1
3.592937252E1,4.788325310E0,3.736605406E0,1.224360943E0
3.594821221E1,4.496003628E0,2.369168282E0,2.683126450E0
3.596703882E1,2.931263685E0,9.750456810E-1,3.220735073E0
3.598585231E1,1.436714649E0,-1.390430927E-1,1.977414608E0
3.600469205E1,3.420829773E-1,-3.583533764E-1,5.070014000E-1
3.602351867E1,-5.523748398E-1,9.267950058E-2,2.268018723E-1
3.604234523E1,-6.213960648E-1,3.316357136E-1,4.926104546E-1
3.606117184E1,2.076282501E-1,-1.552870274E-1,7.570590973E-1
3.607999846E1,8.177800179E-1,-9.492063522E-2,5.379242897E-1
3.609882507E1,8.283472061E-1,4.313905239E-1,3.987708092E-1
3.611765169E1,4.211173058E-1,3.368744850E-1,-1.040306091E-1
3.613647830E1,-1.182962418E0,1.287984848E-2,-6.535634995E-1
3.615530492E1,-2.469908237E0,-2.422912121E-1,-1.680682182E0
3.617413153E1,-1.585438251E0,6.234794855E-1,-1.974523544E0
3.619295809E1,-1.361432076E-1,1.098028302E0,-5.378389359E-1
3.621178471E1,9.665555954E-1,7.239565849E-1,3.328256607E-1
3.623061132E1,1.478936672E0,4.191894531E-1,6.306705475E-1
3.624943794E1,2.099305868E0,4.207193851E-1,1.494884968E0
3.626826455E1,2.638744354E0,3.006060123E-1,1.956736088E0
3.628709117E1,2.433974504E0,-1.152026653E-2,9.702143669E-1
3.630591778E1,2.214272976E0,-1.788848639E-1,-1.288294792E-1
3.632474440E1,2.718318224E0,5.216430426E-1,-4.230728149E-1
3.634357101E1,3.573648691E0,6.349616647E-1,-3.371577263E-1
3.636239762E1,3.615872622E0,5.872955918E-1,-4.328584671E-2
3.638122424E1,3.357465506E0,6.188260317E-1,-4.612708092E-1
3.640005085E1,2.468714714E0,1.212975860E0,7.415204048E-1
3.641887747E1,1.919354916E0,7.617224455E-1,8.887195587E-1
3.643770408E1,1.997725487E0,1.297472119E-1,-6.426382065E-2
3.645653070E1,8.012280464E-1,2.016366869E-1,-3.297991753E-1
3.647535731E1,-2.277746201E-1,5.904836059E-1,-5.516624451E-1
3.649418393E1,-5.351057053E-1,8.915422559E-1,-3.557000160E-1
3.651301054E1,-3.484754562E-1,7.676086426E-1,1.971864700E-1
3.653183716E1,-9.005069733E-2,2.800834179E-2,5.039892197E-1
3.655066377E1,-1.014785767E-1,-4.522391558E-1,6.584539413E-1
3.656949044E1,-8.882904053E-2,-4.398083687E-1,5.954766273E-1
3.658831705E1,-1.224708557E-1,-1.588919163E-1,4.167013168E-1
3.660714367E1,-3.920016289E-1,1.303660870E-1,4.745645523E-1
3.662597028E1,-5.017132759E-1,2.319912910E-1,9.336056709E-1
3.664479690E1,-5.426969528E-1,4.692149162E-2,1.187389851E0
3.666362351E1,-1.112653732E0,3.726725578E-1,1.042109489E0
3.668245012E1,-1.697668076E0,9.850111008E-1,1.027196884E0
3.670127674E1,-2.402730942E0,1.468729496E0,9.041447639E-1
3.672010341E1,-2.807454109E0,1.776733398E0,9.506173134E-1
3.673893002E1,-2.937771320E0,1.898813725E0,8.023586273E-1
3.675775664E1,-2.907426357E0,2.100506783E0,6.610541344E-1
3.677658325E1,-3.363920689E0,2.502254963E0,1.084497929E0
3.679540986E1,-3.311964512E0,2.743157864E0,6.147637367E-1
3.681423653E1,-2.751973629E0,3.043562889E0,4.635648727E-1
3.683306315E1,-3.378895760E0,3.302992821E0,1.611118317E-1
3.685188976E1,-4.202528954E0,2.480696201E0,-9.871897697E-1
3.687071638E1,-4.824411869E0,1.819662094E0,-1.742044687E0
3.688954299E1,-4.938642025E0,1.717848778E0,-2.089580536E0
3.690836966E1,-4.901496410E0,1.930519819E0,-2.536778927E0
3.692719627E1,-5.247918129E0,1.718577147E0,-2.491685390E0
3.694600976E1,-5.143113613E0,2.265381813E-1,-2.685572863E0
3.696484950E1,-4.225803375E0,-8.978612423E-1,-3.089583635E0
3.698367617E1,-3.164380074E0,-7.859146595E-1,-2.866794586E0
3.700248966E1,-1.880348206E0,-6.756188869E-1,-2.791537762E0
3.702132940E1,-2.294697762E-1,-7.668142319E-1,-3.083590508E0
3.704015606E1,1.183664799E0,-5.012609959E-1,-2.917968750E0
3.705898268E1,1.361060023E0,7.703254223E-1,-2.356051445E0
3.707780929E1,6.101503372E-1,1.189186811E0,-3.421899319E0
3.709663591E1,1.281845093E0,-9.234046936E-2,-4.666524410E0
3.711544945E1,2.115223885E0,-1.349287033E-1,-3.408924103E0
3.713428919E1,1.985958695E0,8.252828121E-1,-1.433549881E0
3.715311580E1,2.292122841E0,6.462616920E-1,-7.112407684E-1
3.717194247E1,2.659017563E0,2.262825966E-1,3.273868561E-2
3.719076908E1,1.945547342E0,2.347707748E-1,-2.612800598E-1
3.720959575E1,1.280356288E0,1.496272087E-1,-7.206735611E-1
3.722842236E1,6.729818583E-1,2.966718674E-1,-2.375669479E-1
3.724724898E1,-4.366052151E-2,7.058312893E-1,2.850923538E-1
3.726607564E1,-5.520273447E-1,4.937396049E-1,1.454858780E-1
3.728490226E1,-1.470892906E0,-1.966624260E-1,-1.106865883E0
3.730372893E1,-2.855355978E0,-2.127547264E-1,-1.187666893E0
3.732255554E1,-3.302104950E0,3.499774933E-1,7.232093811E-2
3.734138221E1,-2.835887909E0,7.098937035E-2,2.748498917E-1
3.736020882E1,-2.830843210E0,-2.634053230E-1,2.482128143E-1
3.737903549E1,-2.300759554E0,-3.151609898E-1,1.992788315E-1
3.739786210E1,-1.656301260E0,7.937359810E-2,-3.984642029E-2
3.741668872E1,-2.022678375E0,2.522943020E-1,-7.135658264E-1
3.743551538E1,-2.153276920E0,1.715152264E-1,-9.391231537E-1
3.745432893E1,-9.573897123E-1,6.220476627E-1,-3.606338501E-1
3.747316867E1,4.347738028E-1,-1.109385490E-2,3.099431992E-1
3.749199533E1,8.525133133E-2,-5.115659237E-1,-6.617116928E-1
3.751082195E1,-9.737735987E-1,1.989853382E-1,-6.635284424E-1
3.752964861E1,-6.954884529E-2,-2.885007858E-2,-5.424880981E-1
3.754847523E1,4.261963367E-1,-2.059607506E-1,1.474170685E-1
3.756730190E1,7.002378106E-1,5.711841583E-2,6.557598114E-1
3.758612851E1,2.982964516E-1,2.983143330E-1,1.352504730E0
3.760495518E1,-5.874660611E-1,2.317852974E-1,1.084781647E0
3.762378179E1,-1.325080633E0,5.912923813E-2,-1.359806061E-1
3.764260846E1,-8.693841696E-1,9.419813156E-1,-1.479863644E0
3.766143513E1,7.284922004E-1,2.106375217E0,-1.322248459E0
3.768024861E1,2.735235691E0,2.056641579E0,-9.676427841E-1
3.769908841E1,4.572860241E0,2.110105753E0,-6.131744385E-1
3.771791507E1,6.175909996E0,2.309653282E0,-9.206237793E-1
3.773672856E1,7.883173466E0,2.100670099E0,-1.111168861E0
3.775556835E1,8.695713997E0,2.140017748E0,-1.157151222E0
3.777439502E1,8.304934502E0,2.730781078E0,-2.831459045E-1
3.779322164E1,8.264539719E0,3.127300024E0,-1.542434692E-1
3.781204830E1,7.880501747E0,3.392842531E0,-8.951845169E-1
3.783087497E1,6.622834206E0,3.180030346E0,-2.736851692E0
3.784968851E1,3.801193714E0,3.814653635E0,-4.606602669E0
3.786852825E1,1.011384010E0,3.362609386E0,-5.832653046E0
3.788735492E1,-9.556832314E-1,4.044430733E0,-6.637561798E0
3.790618158E1,-1.809433937E0,4.457943916E0,-5.575093746E0
3.792500820E1,-1.398835182E0,4.058753490E0,-3.583038568E0
3.794383486E1,-1.252239704E0,5.749036789E0,8.728432655E-1
3.796264841E1,9.043502808E-2,6.930899143E0,4.737446785E0
3.798148814E1,2.798642635E0,4.299392223E0,3.971509218E0
3.800031481E1,4.339390278E0,4.780861378E0,4.173706532E0
3.801912835E1,2.222700119E0,7.547796249E0,4.418575287E0
3.803796814E1,-9.215745926E-1,6.893766403E0,3.816878557E0
3.805679481E1,-1.589905739E0,7.633306503E0,3.639847517E0
3.807560835E1,-1.584243774E0,9.170428276E0,3.259555817E0
3.809444814E1,-1.707736015E0,9.837263107E0,2.199401379E0
3.811327481E1,-2.375950813E0,1.107661819E1,2.859945297E-1
3.813208835E1,-3.888734818E0,1.322681046E1,-1.964421153E0
3.815092814E1,-4.987485886E0,1.379893017E1,-4.425977230E0
3.816975476E1,-5.802791595E0,1.254744720E1,-6.660825729E0
3.818856835E1,-7.181190014E0,1.095560074E1,-8.543313980E0
3.820740809E1,-8.180424690E0,8.709526062E0,-9.445012093E0
3.822623476E1,-8.615501404E0,6.257445335E0,-1.000396538E1
3.824504830E1,-8.496654510E0,4.731400490E0,-9.508674622E0
3.826388809E1,-8.224319458E0,3.059787035E0,-9.371965408E0
3.828271476E1,-8.977752686E0,1.064728975E0,-9.404153824E0
3.830152830E1,-8.911224365E0,-7.501436472E-1,-8.091601372E0
3.832036809E1,-7.512936592E0,-8.950706720E-1,-5.696157455E0
3.833919476E1,-5.933650017E0,-3.296840191E-2,-4.715723038E0
3.835802143E1,-4.817751884E0,-1.266932189E-1,-3.795979500E0
3.837684809E1,-4.899652481E0,-6.583166122E-1,-3.864026070E0
3.839567476E1,-5.519292831E0,-1.135320544E0,-4.954015732E0
3.841450143E1,-4.680289268E0,-1.674384832E0,-4.970572472E0
3.843332809E1,-4.355155945E0,-1.418109417E0,-4.107386589E0
3.845215476E1,-4.010518551E0,-6.301541924E-1,-3.736402035E0
3.847096830E1,-2.968984842E0,-2.782509625E-1,-2.403237820E0
3.848980809E1,-2.069633484E0,-3.352157474E-1,-1.715667725E0
