"Time (s)","Linear Acceleration x (m/s^2)","Linear Acceleration y (m/s^2)","Linear Acceleration z (m/s^2)"
1.577634130E-1,-6.010293961E-3,1.179313660E-2,-1.947760582E-2
1.765916420E-1,-9.715199471E-2,-1.751422882E-2,-8.570790291E-2
1.954199230E-1,-1.999616623E-2,-7.880592346E-2,-1.087048054E-1
2.142481530E-1,-2.355885506E-2,-4.019737244E-2,-5.166530609E-2
2.330763820E-1,-1.630821228E-1,1.165647507E-1,3.999590874E-2
2.519046110E-1,-2.245824337E-1,4.146194458E-2,4.840612411E-2
2.707328920E-1,-9.509134293E-2,-1.736640930E-2,-9.259939194E-3
2.895611210E-1,-9.018230438E-2,-8.316993713E-3,-3.323984146E-2
3.083893500E-1,-1.316430569E-1,5.884170532E-4,-7.858228683E-2
3.272176320E-1,3.926730156E-2,-6.302261353E-2,-3.849124908E-2
3.460458610E-1,2.166779041E-1,-4.026031494E-2,-9.484052658E-2
3.648740900E-1,3.308126926E-1,2.989387512E-2,-1.451399326E-1
3.837023710E-1,2.491700649E-1,2.013320923E-1,-1.471979618E-1
4.025306000E-1,2.044005394E-1,1.636276245E-1,-1.990163326E-1
4.213588300E-1,3.547549248E-1,1.279640198E-1,-2.227401733E-1
4.401870590E-1,5.824420452E-1,1.581106186E-1,-2.433919907E-1
4.590153400E-1,7.724833488E-1,1.935167313E-1,-1.751708984E-1
4.778435690E-1,1.071961641E0,2.238407135E-1,-2.117061615E-1
4.966717980E-1,1.467058420E0,2.214088440E-1,-3.178443909E-1
5.155000800E-1,1.972502828E0,2.400474548E-1,-3.652153015E-1
5.343283090E-1,2.373711586E0,3.970222473E-1,-3.297648430E-1
5.531565380E-1,2.781299114E0,8.085241318E-1,-1.529154778E-1
5.719847670E-1,3.011156082E0,8.885869980E-1,-2.035715580E-1
5.908130480E-1,2.783673525E0,1.229194641E0,-3.428306580E-1
6.096412780E-1,2.289364338E0,1.315812111E0,-7.431070805E-1
6.284695070E-1,1.892091274E0,9.498844147E-1,-1.103552818E0
6.472977880E-1,1.425701618E0,1.107753754E0,-1.045856953E0
6.661260170E-1,9.893975258E-1,1.232545853E0,-8.943908215E-1
6.849542460E-1,8.385708332E-1,1.064088821E0,-9.423916340E-1
7.037825280E-1,9.000651836E-1,8.818607330E-1,-9.519193172E-1
7.226107570E-1,8.538291454E-1,9.853191376E-1,-8.777112961E-1
7.414389860E-1,2.750141621E-1,1.364949226E0,-9.569053650E-1
7.602672150E-1,-2.968094349E-1,1.517256737E0,-1.305670500E0
7.790954960E-1,-2.302477360E-1,1.196382523E0,-1.525826812E0
7.979237250E-1,1.254599094E-1,9.109344482E-1,-1.548149824E0
8.167519550E-1,3.390538692E-1,9.520673752E-1,-1.500132322E0
8.355802360E-1,4.541654587E-1,1.095276833E0,-1.525215507E0
8.544084650E-1,5.019490719E-1,1.177938461E0,-1.673164964E0
8.732366940E-1,5.289251804E-1,1.294091225E0,-1.589792728E0
8.920649230E-1,5.776000023E-1,1.255296707E0,-1.686978459E0
9.108932050E-1,5.690826178E-1,1.149078369E0,-2.003684044E0
9.297214340E-1,2.769625187E-1,1.316970825E0,-2.169814587E0
9.485496630E-1,3.002047539E-2,1.556665421E0,-2.454658985E0
9.673779440E-1,-1.709039211E-1,1.681832314E0,-2.626518250E0
9.862061730E-1,-3.214714527E-1,1.756292343E0,-2.841099977E0
1.005034403E0,-2.937412262E-1,1.804876328E0,-2.795704365E0
1.023862684E0,-4.308919907E-1,2.056013107E0,-3.000180721E0
1.042690913E0,-6.973682642E-1,2.163731575E0,-3.420923471E0
1.061519142E0,-9.363971949E-1,2.281131744E0,-3.428966522E0
1.080347423E0,-1.013114691E0,2.264439583E0,-3.454672575E0
1.099175653E0,-1.214376330E0,2.264881134E0,-3.419242382E0
1.118003882E0,-1.640099645E0,2.130566597E0,-3.812921524E0
1.136832163E0,-2.366002083E0,1.745211601E0,-3.998095512E0
1.155660392E0,-2.550477982E0,1.097091675E0,-4.205786705E0
1.174488621E0,-2.476641178E0,5.977344513E-1,-4.254359722E0
1.193316903E0,-2.464812756E0,1.981840134E-1,-3.909378529E0
1.212145132E0,-2.453431845E0,-7.756948471E-2,-3.154357672E0
1.230973361E0,-2.071050882E0,-5.314483643E-1,-2.838942766E0
1.249801642E0,-1.950773716E0,-8.712458611E-1,-3.040075302E0
1.268629871E0,-1.875837326E0,-3.329725266E-1,-3.133800507E0
1.287458100E0,-1.871279955E0,8.206224442E-2,-2.953450441E0
1.306286382E0,-1.850248337E0,2.714605331E-1,-2.650116444E0
1.325114611E0,-1.534500837E0,1.729989052E-1,-2.028815985E0
1.343942840E0,-8.996224403E-1,1.781973839E-1,-1.486134052E0
1.362771121E0,1.809484959E-1,3.790097237E-1,-9.621691704E-1
1.381599350E0,3.983020782E-1,6.687388420E-1,-2.915372849E-1
1.400427632E0,3.226256371E-2,6.885571480E-1,-1.055607796E-1
1.419255861E0,-4.215688705E-1,7.079205513E-1,-2.269253731E-1
1.438084142E0,-4.106123447E-1,7.659559250E-1,-1.255311966E-1
1.456912371E0,-4.329276085E-2,8.169932365E-1,4.962778091E-2
1.475740600E0,3.786315918E-1,8.900933266E-1,3.933210373E-1
1.494568882E0,9.359524250E-1,1.157510757E0,8.766407967E-1
1.513397111E0,1.362992525E0,1.458578110E0,1.339804173E0
1.532225340E0,1.332159519E0,1.552454472E0,1.710811138E0
1.551053621E0,1.000911713E0,1.202647686E0,1.724191189E0
1.569881850E0,6.695957184E-1,5.652194023E-1,1.813755512E0
1.588710080E0,4.871056080E-1,-3.355607986E-1,1.714044571E0
1.607538361E0,1.891169548E-1,-8.172969818E-1,1.709542751E0
1.626366590E0,-1.694746017E-1,-7.204265594E-1,1.656715393E0
1.645194819E0,-2.702960968E-1,-3.111958504E-1,1.504723549E0
1.664023100E0,-2.606091499E-1,1.263251305E-1,1.298883915E0
1.682851330E0,-2.699670792E-1,5.873813629E-1,1.020439625E0
1.701679611E0,-4.660444260E-1,9.456272125E-1,7.925171852E-1
1.720507840E0,-6.254091263E-1,9.084372520E-1,5.592036247E-1
1.739336069E0,-5.521931648E-1,7.573533058E-1,8.490090370E-1
1.758164350E0,-8.476400375E-1,3.138937950E-1,6.076250076E-1
1.776992580E0,-1.368978500E0,-5.963659286E-2,-6.102418900E-2
1.795820861E0,-1.546922207E0,-3.832545280E-1,-6.822514534E-1
1.814649090E0,-1.374072552E0,-1.892275810E-1,-9.173588753E-1
1.833477319E0,-9.763550758E-1,3.045082092E-2,-1.044727325E0
1.852305600E0,-4.177651405E-1,1.918053627E-1,-1.048641205E0
1.871133830E0,1.095085144E-1,4.006328583E-1,-7.896471024E-1
1.889962111E0,3.308763504E-1,2.321643829E-1,-5.729660988E-1
1.908790340E0,2.473540306E-1,1.323790550E-1,-5.738821030E-1
1.927618569E0,-6.145381927E-2,4.634904861E-2,-5.938010216E-1
1.946446850E0,-3.834285736E-1,-6.059408188E-2,-5.422143936E-1
1.965275080E0,-6.311206818E-1,-2.046165466E-1,-4.369273186E-1
1.984103361E0,-8.137860298E-1,-4.684836864E-1,-3.799638748E-1
2.002931590E0,-7.658271790E-1,-5.199024677E-1,-3.089814186E-1
2.021759871E0,-4.076781273E-1,-3.779695034E-1,-3.053159714E-1
2.040588100E0,9.897565842E-2,-1.886062622E-1,-1.136817932E-1
2.059416330E0,4.497246742E-1,-6.240630150E-2,-1.041183472E-1
2.078244611E0,4.620261192E-1,1.355338097E-2,-1.354837418E-2
2.097072840E0,3.872671127E-1,2.518868446E-2,3.535604477E-2
2.115901121E0,5.301790237E-1,-2.529668808E-2,2.914333344E-2
2.134729350E0,4.946274757E-1,-6.117272377E-2,-1.710705757E-1
2.153557580E0,4.309668541E-1,-2.061843872E-3,1.687908173E-2
2.172385861E0,2.559051514E-1,2.915041447E-1,2.414746284E-1
2.191214090E0,-3.704166412E-2,3.126156330E-1,2.245044708E-1
2.210042371E0,-1.886343956E-1,1.001558304E-1,-1.598992348E-1
2.228870600E0,2.551078796E-3,1.217858791E-1,-5.286421776E-1
2.247698882E0,3.392763138E-1,3.144910336E-1,-3.749814034E-1
2.266527111E0,7.174844742E-1,3.098938465E-1,9.574604034E-2
2.285355340E0,8.419027328E-1,3.183898926E-1,1.009869576E-1
2.304183621E0,5.889368057E-1,3.539636135E-1,-9.315919876E-2
2.323011850E0,2.873659134E-1,2.822513580E-1,-3.428411484E-1
2.341840132E0,7.682800293E-3,2.635002136E-1,-2.326178551E-1
2.360668361E0,-7.965278625E-2,2.499608994E-1,-2.762594223E-1
2.379496590E0,-2.374405861E-1,3.855628967E-1,-3.633861542E-1
2.398324871E0,-2.627377510E-1,4.810903072E-1,-4.954094887E-1
2.417153100E0,-1.723337173E-1,7.178771496E-1,-3.915805817E-1
2.435981382E0,-3.879055977E-1,7.710707188E-1,-4.808764458E-1
2.454809611E0,-6.829495430E-1,5.739390850E-1,-9.525384903E-1
2.473637840E0,-6.194510460E-1,5.269782543E-1,-8.838272095E-1
2.492466121E0,-2.838740349E-1,6.258206367E-1,-9.350671768E-1
2.511294350E0,6.815528870E-2,6.784422398E-1,-9.979176521E-1
2.530122632E0,3.772459030E-1,6.921386719E-1,-9.218664169E-1
2.548950861E0,4.605469704E-1,7.256805897E-1,-7.676558495E-1
2.567779142E0,2.791662216E-1,6.720507145E-1,-8.480572701E-1
2.586607371E0,3.353738785E-2,5.708231926E-1,-8.852005005E-1
2.605435600E0,-2.032527924E-1,4.380640984E-1,-6.614141464E-1
2.624263882E0,-4.219813347E-1,4.808537960E-1,-4.810028076E-1
2.643092111E0,-5.179295540E-1,4.589159489E-1,-3.534722328E-1
2.661920392E0,-5.696401596E-1,4.785920382E-1,-1.587905884E-1
2.680748621E0,-5.881347656E-1,6.141754389E-1,-1.259422302E-2
2.699576903E0,-6.753702164E-1,6.443061829E-1,9.933328629E-2
2.718405132E0,-5.479583740E-1,6.250214577E-1,6.301069260E-2
2.737233413E0,-5.996060371E-1,7.950377464E-1,-3.056049347E-2
2.756061642E0,-6.930737495E-1,9.497988224E-1,-1.366786957E-1
2.774889923E0,-7.522983551E-1,1.071788788E0,-1.714701653E-1
2.793718153E0,-7.451653481E-1,1.012722611E0,-1.255617142E-1
2.812546434E0,-6.581983566E-1,9.004868269E-1,-4.454135895E-3
2.831374663E0,-6.907186508E-1,8.290930986E-1,-5.441236496E-2
2.850202892E0,-6.914334297E-1,6.658203602E-1,-2.496805191E-1
2.869031173E0,-5.049314499E-1,4.216220379E-1,-5.376973152E-1
2.887859403E0,-3.719635010E-1,4.655462503E-1,-5.643539429E-1
2.906687684E0,-3.560748100E-1,4.079198837E-1,-4.836540222E-1
2.925515913E0,-4.958858490E-1,1.656119823E-1,-4.843387604E-1
2.944344194E0,-7.102699280E-1,9.087800980E-3,-6.879386902E-1
2.963172423E0,-9.338822365E-1,-1.025336981E-1,-1.161036491E0
2.982000705E0,-1.020890713E0,-2.443643808E-1,-1.589968681E0
3.000828934E0,-9.749464989E-1,-3.214242458E-1,-1.804078102E0
3.019657215E0,-8.044300079E-1,-3.726544380E-1,-1.805227757E0
3.038485444E0,-7.714881897E-1,-4.480409622E-1,-1.778517246E0
3.057313673E0,-9.026336670E-1,-4.872286022E-1,-2.142124653E0
3.076141955E0,-9.374165535E-1,-5.408102870E-1,-2.355697632E0
3.094970184E0,-7.703175545E-1,-6.368603706E-1,-2.454692364E0
3.113798465E0,-6.773080826E-1,-3.664854765E-1,-2.370944500E0
3.132626694E0,-6.747202873E-1,-2.216412425E-1,-2.049680710E0
3.151454975E0,-6.735143661E-1,-3.224869967E-1,-2.103645325E0
3.170283205E0,-1.051126003E0,-2.489880323E-1,-2.139087200E0
3.189111486E0,-1.157506943E0,-3.807488680E-1,-2.338289261E0
3.207939715E0,-1.253601551E0,-4.224948883E-1,-2.284202576E0
3.226767996E0,-1.368181705E0,-9.150600433E-2,-2.227696419E0
3.245596225E0,-1.606884956E0,-1.967767477E-1,-2.274869442E0
3.264424507E0,-1.595807552E0,-3.091757298E-1,-2.504181385E0
3.283252736E0,-1.587544918E0,-4.039723873E-1,-2.700992584E0
3.302081017E0,-1.675347328E0,-3.574442863E-1,-2.944228649E0
3.320909246E0,-1.736768723E0,-1.628372669E-1,-3.382679939E0
3.339737475E0,-1.690838814E0,1.332452297E-1,-3.533003807E0
3.358565757E0,-1.486496449E0,6.318023205E-1,-3.483753681E0
3.377393986E0,-1.327089310E0,8.780496120E-1,-3.480415821E0
3.396222267E0,-1.073083401E0,6.395804882E-1,-3.761315346E0
3.415050496E0,-1.023934841E0,1.055088282E0,-3.447017193E0
3.433878725E0,-1.190483570E0,1.433981895E0,-2.961179733E0
3.452707007E0,-1.399247169E0,1.440212250E0,-2.590794086E0
3.471535288E0,-1.897536278E0,1.831574440E0,-2.280497074E0
3.490363517E0,-2.767161846E0,2.025824547E0,-2.013607502E0
3.509191746E0,-3.233106136E0,1.785890102E0,-1.968668461E0
3.528020028E0,-3.444257259E0,2.614956856E0,-1.575543880E0
3.546848257E0,-3.407158375E0,2.987222195E0,-9.283246994E-1
3.565676538E0,-2.992807388E0,2.695412159E0,-8.423304558E-1
3.584504767E0,-2.580121994E0,2.272972107E0,-7.237010002E-1
3.603332996E0,-2.091888428E0,2.217037201E0,-5.555224419E-1
3.622161278E0,-1.763076782E0,2.234411716E0,-7.446956635E-2
3.640989507E0,-1.142753601E0,2.356453896E0,2.756309509E-2
3.659817788E0,-7.837677002E-1,2.350344181E0,4.685544968E-1
3.678646017E0,-4.348697662E-1,2.141052246E0,8.924202919E-1
3.697474298E0,-1.811256409E-1,1.664370537E0,1.003308296E0
3.716302528E0,-2.030415535E-1,1.562928677E0,8.666090965E-1
3.735130757E0,-2.467374802E-1,2.199515343E0,1.038952827E0
3.753959038E0,-2.599368095E-1,2.757952690E0,1.334579945E0
3.772787267E0,-2.581753731E-1,2.949299335E0,1.482942104E0
3.791615548E0,-8.537244797E-2,2.850391865E0,1.549112320E0
3.810443778E0,2.026534081E-1,2.264522076E0,1.429006100E0
3.829272059E0,3.931922913E-1,1.651237011E0,1.188150883E0
3.848100288E0,5.564532280E-1,1.223272324E0,8.072705269E-1
3.866928517E0,8.539371490E-1,8.126225471E-1,4.408402443E-1
3.885756798E0,1.522093296E0,5.841016769E-1,5.040407181E-2
3.904585028E0,2.067609787E0,1.023640156E0,-2.004528046E-2
3.923413309E0,2.394065142E0,1.479370594E0,5.249309540E-2
3.942241538E0,2.644251108E0,1.266954899E0,8.909082413E-2
3.961069819E0,2.789811373E0,1.090560913E0,1.723775864E-1
3.979898048E0,2.596802950E0,1.214458466E0,4.352798462E-1
3.998726330E0,2.201430082E0,1.124351740E0,6.549801826E-1
4.017554559E0,1.804218292E0,6.550943851E-1,7.402262688E-1
4.036382788E0,1.413785934E0,3.415737152E-1,8.593940735E-1
4.055211069E0,1.035784721E0,1.377043724E-1,8.184671402E-1
4.074039298E0,6.148352623E-1,6.693863869E-2,7.743039131E-1
4.092867580E0,3.325119019E-1,1.142561436E-1,8.356661797E-1
4.111695809E0,2.222247124E-1,1.080324650E-1,9.680452347E-1
4.130524090E0,8.718919754E-2,-1.321203709E-1,1.151731968E0
4.149352319E0,-2.527236938E-3,-3.856611252E-1,1.375574589E0
4.168180600E0,-3.765635490E-1,-4.876501560E-1,1.712164402E0
4.187008830E0,-9.907355309E-1,-6.598730087E-1,1.817244053E0
4.205837111E0,-2.001268864E0,-9.528853893E-1,1.904569149E0
4.224665340E0,-2.827435017E0,-1.118162751E0,1.948659897E0
4.243493569E0,-3.772481441E0,-1.285316825E0,1.634828568E0
4.262321850E0,-4.542704105E0,-1.645298719E0,1.295308590E0
4.281150080E0,-4.482707500E0,-1.869404435E0,9.379825592E-1
4.299978361E0,-3.966951847E0,-1.766127348E0,9.789128304E-1
4.318806590E0,-3.504575253E0,-1.490497828E0,9.447731972E-1
4.337634871E0,-3.291074753E0,-1.477272034E0,7.347340584E-1
4.356463100E0,-3.100148201E0,-1.547293901E0,4.630041122E-1
4.375291382E0,-2.888905048E0,-1.544565916E0,2.160983086E-1
4.394119611E0,-2.690553188E0,-1.366689086E0,1.345787048E-1
4.412947892E0,-2.556034088E0,-1.278361201E0,1.948766708E-1
4.431776121E0,-2.196173191E0,-1.161244869E0,2.458105087E-1
4.450604403E0,-1.698359489E0,-3.194506168E-1,3.855161667E-1
4.469432632E0,-1.242969513E0,9.775823355E-1,7.894392014E-1
4.488260913E0,-8.469257355E-1,2.004463434E0,9.234762192E-1
4.507089142E0,-7.187781334E-1,2.841007471E0,7.526569366E-1
4.525917423E0,-5.971555710E-1,3.450329542E0,4.634590149E-1
4.544745653E0,-5.209536552E-1,3.769491196E0,-1.283731461E-1
4.563573934E0,-2.281742096E-1,4.146673203E0,-9.537930489E-1
4.582402163E0,2.334842682E-1,4.639235973E0,-1.406877995E0
4.601230444E0,8.814795017E-1,4.591748238E0,-1.820174694E0
4.620058673E0,1.523393154E0,4.186408997E0,-2.104443550E0
4.638886955E0,2.037251949E0,3.715340614E0,-2.443466663E0
4.657715184E0,2.242714882E0,3.297734737E0,-2.695045471E0
4.676543465E0,2.321563244E0,2.906828165E0,-2.882027149E0
4.695371694E0,2.270888090E0,2.683493614E0,-2.968520641E0
4.714199975E0,2.299230337E0,2.382721424E0,-3.180557728E0
4.733028205E0,2.305658340E0,2.318317652E0,-3.209138393E0
4.751856486E0,2.292116642E0,2.387865067E0,-2.999924660E0
4.770684767E0,2.325871468E0,2.449583769E0,-2.565042973E0
4.789512996E0,2.398350716E0,2.055393934E0,-2.043153763E0
4.808341278E0,2.206716776E0,1.794152260E0,-1.754686832E0
4.827169507E0,1.688904405E0,1.734679699E0,-1.594692707E0
4.845997788E0,1.339013457E0,1.650413990E0,-1.176369667E0
4.864826017E0,1.184663057E0,1.509888411E0,-6.589851379E-1
4.883654298E0,1.056461334E0,1.375060797E0,-3.531951904E-1
4.902482528E0,8.310506344E-1,1.119381905E0,-1.596240997E-1
4.921310809E0,4.636979103E-1,1.176996708E0,-9.385108948E-3
4.940139090E0,1.429250240E-1,1.164842606E0,1.921091080E-1
4.958967319E0,-7.921361923E-2,9.288582802E-1,3.271398544E-1
4.977795600E0,-3.198442459E-1,7.849369049E-1,3.095760345E-1
4.996623830E0,-6.674785614E-1,7.417380810E-1,1.572523117E-1
5.015452111E0,-8.238899708E-1,6.338137388E-1,-8.495044708E-2
5.034280340E0,-9.338831902E-1,7.269684076E-1,-2.956542969E-1
5.053108621E0,-8.876478672E-1,8.137221336E-1,-4.357852936E-1
5.071936903E0,-7.143447399E-1,8.529251814E-1,-6.766471863E-1
5.090765132E0,-4.900412560E-1,8.780608177E-1,-9.046268463E-1
5.109593413E0,-3.476898670E-1,8.136097789E-1,-1.344783306E0
5.128421642E0,-3.895559311E-1,6.534872055E-1,-1.788384914E0
5.147249923E0,-5.693123341E-1,5.717042089E-2,-1.965629578E0
5.166078153E0,-1.559350491E-1,-1.001020193E0,-1.928882599E0
5.184906434E0,1.942749023E-1,-1.485165119E0,-1.860028267E0
5.203734715E0,1.066303253E-2,-1.467223763E0,-1.744893074E0
5.222562944E0,-1.285715103E-1,-1.563027382E0,-1.990897655E0
5.241391225E0,-2.002992630E-1,-1.417932749E0,-2.347431660E0
5.260219455E0,-2.463779449E-1,-1.239335775E0,-2.519546986E0
5.279047736E0,-1.449451447E-1,-1.088081360E0,-2.598832607E0
5.297875965E0,-1.204595566E-1,-5.041221380E-1,-2.393474102E0
5.316704246E0,-7.412481308E-2,-4.112040699E-1,-1.971221924E0
5.335532528E0,9.436464310E-2,-7.175102234E-1,-1.736982346E0
5.354360757E0,-1.648726463E-1,-6.715826988E-1,-1.708984852E0
5.373189038E0,-4.778237343E-1,-6.800999641E-1,-1.593962193E0
5.392017319E0,-4.078226089E-1,-8.981683850E-1,-1.250505447E0
5.410845548E0,-4.361805916E-1,-1.071282744E0,-9.338583946E-1
5.429673830E0,-6.113724709E-1,-1.427868485E0,-6.743597984E-1
5.448502059E0,-8.444547653E-1,-1.854022503E0,-2.394771576E-1
5.467330340E0,-1.360596657E0,-1.914159060E0,1.663885117E-1
5.486158621E0,-2.166418076E0,-1.901977539E0,6.655025482E-1
5.504986850E0,-2.901191711E0,-1.809656739E0,8.978910446E-1
5.523815132E0,-3.572339058E0,-1.663175821E0,1.218418121E0
5.542643413E0,-4.216237068E0,-1.639384031E0,1.565111160E0
5.561471642E0,-4.842195988E0,-1.937010050E0,1.649886131E0
5.580299923E0,-5.330454826E0,-2.123660564E0,1.488210678E0
5.599128153E0,-6.124298096E0,-2.207206726E0,1.124419212E0
5.617956434E0,-6.972941875E0,-2.128581047E0,1.002058983E0
5.636784715E0,-7.593783855E0,-1.452867031E0,1.180300713E0
5.655612996E0,-7.672445774E0,-1.207650542E0,1.002259254E0
5.674434663E0,-7.815987587E0,5.851829052E-2,1.074333191E-1
5.693585705E0,-8.248525620E0,1.934660673E0,-1.461118698E0
5.712790236E0,-7.862140179E0,3.522731781E0,-3.308216095E0
5.731981382E0,-6.399572372E0,3.854989052E0,-4.293059826E0
5.751199246E0,-3.940554380E0,4.204148769E0,-5.107388973E0
5.770403778E0,-1.553127050E0,6.039553642E0,-6.362257957E0
5.789594923E0,2.325074673E-1,7.561321735E0,-7.266275406E0
5.808592632E0,1.786906242E0,7.820536137E0,-7.048008919E0
5.827420913E0,2.318852425E0,7.005356789E0,-6.487392902E0
5.846249194E0,1.668405175E0,6.271360397E0,-5.581419468E0
5.865077423E0,4.204254150E-1,5.977522373E0,-4.757467747E0
5.883905705E0,-1.276043892E0,5.719873428E0,-4.286551476E0
5.902720861E0,-2.556639671E0,4.406006813E0,-4.104853630E0
5.921562267E0,-3.575232267E0,4.377151012E0,-3.778223515E0
5.940390496E0,-4.342940331E0,5.045701981E0,-3.170589924E0
5.959218778E0,-4.359246254E0,5.161849022E0,-2.617578983E0
5.978047059E0,-4.238945007E0,4.295488358E0,-2.827341080E0
5.996875288E0,-4.351747513E0,3.780422211E0,-2.701626301E0
6.015703569E0,-4.419530869E0,3.784871101E0,-3.122985840E0
6.034531850E0,-4.436162949E0,3.698215008E0,-3.617452145E0
6.053360080E0,-4.211934090E0,3.835216999E0,-4.463046074E0
6.072188361E0,-3.862743139E0,3.891256809E0,-5.169156075E0
6.091016590E0,-3.487973452E0,4.229414940E0,-5.735558987E0
6.109844871E0,-2.865469456E0,4.522118092E0,-6.038534164E0
6.128673153E0,-2.393760681E0,5.138555050E0,-5.769281864E0
6.147501382E0,-2.656140327E0,5.911987305E0,-5.328586102E0
6.166329663E0,-2.990813255E0,5.931393147E0,-4.983270645E0
6.185157944E0,-3.039954185E0,5.718368053E0,-4.627028465E0
6.203986173E0,-3.073944092E0,5.993230820E0,-4.235046387E0
6.222814455E0,-3.526580334E0,6.369078636E0,-3.608219862E0
6.241642736E0,-3.998889446E0,5.950775146E0,-2.800636530E0
6.260470965E0,-4.589485645E0,5.878899097E0,-2.659575701E0
6.279299246E0,-5.287994862E0,5.908807755E0,-2.704869032E0
6.298127528E0,-5.384752274E0,6.111506462E0,-2.864591360E0
6.316955757E0,-4.837483406E0,6.189032078E0,-2.823259592E0
6.335784038E0,-3.844123840E0,5.792199612E0,-2.535070896E0
6.354599194E0,-2.388991833E0,5.181933403E0,-2.604838133E0
6.373440548E0,-1.009072304E0,4.322154045E0,-2.767241001E0
6.392268830E0,-2.295594215E-1,4.243617058E0,-2.583583593E0
6.411097111E0,1.285705566E-1,4.698470116E0,-2.464940310E0
6.429925340E0,1.941251755E-2,5.289783001E0,-2.370873213E0
6.448753621E0,-8.263397217E-2,4.937694073E0,-2.232340097E0
6.467568778E0,7.744765282E-1,3.415303707E0,-2.162557602E0
6.486410132E0,1.610313416E0,2.641618252E0,-2.183452606E0
6.505238413E0,1.515719891E0,3.308056355E0,-2.508559704E0
6.524066694E0,1.032166481E0,4.091058254E0,-3.149623871E0
6.542894923E0,6.003694534E-1,4.592633724E0,-3.549815178E0
6.561723205E0,1.088362932E0,4.534005642E0,-3.772837877E0
6.580551486E0,1.814798594E0,4.066808701E0,-3.621626854E0
6.599379715E0,2.570769310E0,3.726282120E0,-3.345004082E0
6.618207996E0,2.776746273E0,3.914181471E0,-2.754176140E0
6.637036278E0,2.662006378E0,3.977044582E0,-2.240648746E0
6.655864507E0,2.954394817E0,3.409111738E0,-1.825741291E0
6.674692788E0,3.240840912E0,2.912492990E0,-1.054787159E0
6.693521069E0,3.207022667E0,2.454779148E0,-4.663581848E-1
6.712349298E0,2.472272873E0,2.144742012E0,-2.383995056E-1
6.731177580E0,1.729310751E0,1.456213951E0,-2.441720963E-1
6.750005861E0,1.327937126E0,1.072571754E0,-1.317882538E-2
6.768834142E0,8.324308395E-1,1.117062330E0,3.552713394E-1
6.787662371E0,5.241098404E-1,1.045282364E0,5.236463547E-1
6.806490653E0,5.360543728E-1,9.734392166E-1,6.944847107E-1
6.825318934E0,6.007330418E-1,8.480389118E-1,8.072929382E-1
6.844147163E0,7.111830711E-1,6.390087605E-1,9.449205399E-1
6.862975444E0,8.655519485E-1,4.708542824E-1,1.296719551E0
6.881803725E0,8.474116325E-1,3.420665264E-1,1.532439232E0
6.900632007E0,6.709017754E-1,1.627531052E-1,1.700799942E0
6.919460236E0,4.317183495E-1,-8.117520809E-2,1.719608307E0
6.938288517E0,2.081229687E-1,-3.279728889E-1,1.854941368E0
6.957116798E0,3.539824486E-2,-4.106026888E-1,1.843074799E0
6.975945028E0,-2.020077705E-1,-4.009139538E-1,1.752403259E0
6.994773309E0,-2.212352753E-1,-2.605981827E-1,1.505989075E0
7.013601590E0,-7.971286774E-2,2.927768230E-2,1.293997765E0
7.032429871E0,1.921939850E-2,4.613535404E-1,1.132895470E0
7.051258100E0,1.035463810E-1,1.095553637E0,9.270725250E-1
7.070086382E0,6.042408943E-2,1.976249576E0,6.546316147E-1
7.088914663E0,1.995813847E-1,2.444355011E0,2.959451675E-1
7.107742944E0,4.444189072E-1,2.517622232E0,-1.413297653E-1
7.126571173E0,8.108838797E-1,2.437372684E0,-7.188377380E-1
7.145399455E0,8.978140354E-1,2.518518925E0,-1.440882206E0
7.164227736E0,8.832811117E-1,2.879441500E0,-2.200004101E0
7.183056017E0,9.582570791E-1,3.280174255E0,-2.762324333E0
7.201884246E0,1.312603235E0,3.629718065E0,-3.233054161E0
7.220712528E0,1.806544542E0,3.788271427E0,-3.565850735E0
7.239540809E0,2.267811775E0,3.672064304E0,-3.774336338E0
7.258369090E0,2.708698750E0,3.355825663E0,-3.751289845E0
7.277197319E0,3.120228052E0,2.836021423E0,-3.555526733E0
7.296025600E0,3.114096165E0,2.365082741E0,-3.320608139E0
7.314853882E0,2.884153843E0,2.122493267E0,-3.022704601E0
7.333682163E0,2.318152905E0,2.200871229E0,-2.485912800E0
7.352510392E0,1.670658588E0,2.475898743E0,-1.966695786E0
7.371338673E0,1.098296165E0,2.868461847E0,-1.668640614E0
7.390166955E0,6.329259872E-1,2.948154211E0,-1.444946289E0
7.408995236E0,4.108340740E-1,2.480413198E0,-1.113157272E0
7.427823517E0,5.187020302E-1,1.896954536E0,-5.845422745E-1
7.446651746E0,6.179120541E-1,1.856047392E0,9.970569611E-2
7.465480028E0,8.455908298E-1,2.066913605E0,8.305978775E-1
7.484308309E0,9.238126278E-1,2.216830254E0,1.123539925E0
7.503136590E0,9.808371067E-1,2.291119099E0,1.098932266E0
7.521964819E0,9.144115448E-1,2.449470520E0,1.125777245E0
7.540793100E0,9.592330456E-1,2.497182369E0,1.221661568E0
7.559621382E0,1.235838413E0,2.428130388E0,1.141131401E0
7.578449663E0,1.458220959E0,2.483521461E0,1.122656822E0
7.597277944E0,1.620242953E0,2.396072865E0,9.782094955E-1
7.616106225E0,1.667085052E0,2.202688217E0,9.244279861E-1
7.634934455E0,1.766793489E0,2.264094830E0,8.690185547E-1
7.653762736E0,1.683779597E0,2.240667582E0,6.986255646E-1
7.672591017E0,1.613474846E0,2.246737480E0,5.681428909E-1
7.691419298E0,1.578677416E0,2.224195480E0,5.775632858E-1
7.710247580E0,1.543069005E0,1.990954757E0,6.142406464E-1
7.729075861E0,1.489003658E0,1.890348911E0,8.486452103E-1
7.747904090E0,1.308493376E0,2.027439594E0,1.162282944E0
7.766732371E0,9.489378929E-1,1.902512431E0,1.351850510E0
7.785560653E0,5.621967316E-1,1.658482790E0,1.331317902E0
7.804388934E0,3.185629845E-2,1.670292974E0,1.149589539E0
7.823217215E0,-4.420158863E-1,1.315236211E0,9.067869186E-1
7.842045496E0,-6.697902679E-1,9.055738449E-1,6.835651398E-1
7.860873778E0,-9.431786537E-1,7.390311956E-1,5.060462952E-1
7.879702007E0,-1.229045153E0,4.224679470E-1,1.672105789E-1
7.898530288E0,-1.273729563E0,-1.102349758E-1,-1.926040649E-1
7.917358569E0,-1.343376160E0,-4.955711365E-1,-7.356634140E-1
7.936186850E0,-1.418023586E0,-5.008246899E-1,-1.253509521E0
7.955015132E0,-1.576853037E0,-3.328689337E-1,-1.756884098E0
7.973843413E0,-1.534672022E0,-4.139431715E-1,-2.303790569E0
7.992671694E0,-1.381056309E0,-4.488621950E-1,-2.497617722E0
8.011499975E0,-1.069702387E0,-3.958683014E-1,-2.274823666E0
8.030328205E0,-9.998347759E-1,-3.988640308E-1,-1.958842754E0
8.049156486E0,-1.270788431E0,-3.506624699E-1,-1.643725872E0
8.067984767E0,-1.761085033E0,-4.147963524E-1,-1.201620102E0
8.086813048E0,-2.161787987E0,-5.906454325E-1,-7.587976456E-1
8.105641330E0,-2.443401098E0,-8.996635675E-1,-3.685398102E-1
8.124469611E0,-2.600619316E0,-8.807395697E-1,4.856395721E-2
8.143297892E0,-2.539030075E0,-8.713030815E-1,2.254209518E-1
8.162126121E0,-2.492819548E0,-8.296878338E-1,4.932250977E-1
8.180954403E0,-2.366439104E0,-9.665489197E-1,6.912155151E-1
8.199782684E0,-2.134598970E0,-9.631738663E-1,7.668161392E-1
8.218610965E0,-2.147100449E0,-6.759150028E-1,7.336511612E-1
8.237439246E0,-1.966141701E0,-7.646508217E-1,6.392192841E-1
8.256267528E0,-1.660994291E0,-8.043428659E-1,7.202014923E-1
8.275095809E0,-1.435274363E0,-7.313818932E-1,6.769676208E-1
8.293924090E0,-1.297662020E0,-7.879552841E-1,7.565593719E-1
8.312752319E0,-1.198637724E0,-9.224343300E-1,9.264650345E-1
8.331580600E0,-1.188661337E0,-1.117862821E0,1.073182106E0
8.350408882E0,-1.113151550E0,-1.277772188E0,1.246947289E0
8.369237163E0,-1.069952488E0,-1.136620164E0,1.449508667E0
8.388065444E0,-1.144631386E0,-8.877396584E-1,1.567413330E0
8.406893725E0,-1.225985050E0,-5.858128071E-1,1.851407051E0
8.425722007E0,-1.226084232E0,-6.028825045E-1,2.101809502E0
8.444550236E0,-1.206285238E0,-7.822067738E-1,2.015125275E0
8.463378517E0,-1.373158216E0,-9.315971136E-1,1.736933708E0
8.482206798E0,-1.438666105E0,-8.023765087E-1,1.422403336E0
8.501035080E0,-1.194096088E0,-6.834933758E-1,1.326606750E0
8.519863361E0,-1.085993528E0,-5.561745167E-1,1.289622307E0
8.538691642E0,-1.152348042E0,-4.949986935E-1,1.136336327E0
8.557519923E0,-1.253843784E0,-5.761744976E-1,7.815532684E-1
8.576348153E0,-1.258046150E0,-5.521413088E-1,3.342666626E-1
8.595176434E0,-1.104701042E0,-4.431036711E-1,-4.671382904E-2
8.614004715E0,-7.685761452E-1,-5.135810375E-2,-3.375253677E-1
8.632832996E0,-6.344709396E-1,3.857064247E-1,-5.801095963E-1
8.651661278E0,-6.290693283E-1,6.551110744E-1,-7.986454964E-1
8.670489559E0,-4.608368874E-1,6.752955914E-1,-1.131268978E0
8.689317840E0,-3.936481476E-1,8.294994831E-1,-1.395678043E0
8.708146121E0,-4.071497917E-1,8.563090563E-1,-1.782913685E0
8.726974350E0,-3.122863770E-1,8.939989805E-1,-1.926795006E0
8.745802632E0,-1.706418991E-1,1.201316953E0,-2.025805950E0
8.764630913E0,-1.081900597E-1,1.445645690E0,-1.992044926E0
8.783459194E0,7.128620148E-2,1.483945608E0,-2.042685986E0
8.802287475E0,2.677748203E-1,1.605709195E0,-2.081900120E0
8.821115757E0,3.015356064E-1,1.741014004E0,-1.975433826E0
8.839944038E0,4.290382862E-1,1.543259144E0,-2.039039135E0
8.858772319E0,4.675142765E-1,1.464325666E0,-1.866082668E0
8.877600548E0,4.355704784E-1,1.605590940E0,-1.645149708E0
8.896428830E0,3.273880482E-1,1.667717338E0,-1.476967335E0
8.915257111E0,2.367916107E-1,1.796758175E0,-1.318680286E0
8.934085392E0,9.592485428E-2,1.704104424E0,-1.167375088E0
8.952913673E0,2.415990829E-2,1.690770864E0,-9.524917603E-1
8.971741955E0,6.881904602E-2,1.641575098E0,-6.888680458E-1
8.990570236E0,2.335386276E-1,1.606014490E0,-3.980627060E-1
9.009398517E0,3.209757805E-1,1.621319175E0,-1.130180359E-1
9.028226798E0,3.489336967E-1,1.756713033E0,-4.687213898E-2
9.047055028E0,2.832899094E-1,1.650341868E0,-3.232765198E-2
9.065883309E0,2.559256554E-1,1.433079004E0,4.498481750E-3
9.084711590E0,2.160978317E-1,1.341625810E0,-1.983261108E-2
9.103539871E0,2.286982536E-1,1.178699017E0,-8.814334869E-2
9.122368153E0,4.099001884E-1,9.642966986E-1,-3.821649551E-1
9.141196434E0,5.654485226E-1,8.898841143E-1,-7.632794380E-1
9.160024715E0,7.209138870E-1,8.290562630E-1,-1.124384880E0
9.178852996E0,9.002997875E-1,6.618621349E-1,-1.366702080E0
9.197681278E0,1.113673925E0,5.608119965E-1,-1.562654972E0
9.216509559E0,1.194178581E0,3.813010454E-1,-1.738546371E0
9.235337840E0,1.348324537E0,2.345638275E-1,-1.764842987E0
9.254166069E0,1.350029469E0,3.491132259E-1,-1.437858105E0
9.272994350E0,9.773406982E-1,5.045845509E-1,-1.116794109E0
9.291822632E0,5.851609707E-1,1.430140734E-1,-7.963123322E-1
9.310650913E0,4.105396271E-1,-6.179957390E-1,-3.155326843E-1
9.329479194E0,3.143529892E-1,-1.269836783E0,2.353696823E-1
9.348307475E0,9.373044968E-2,-1.274744391E0,7.146663666E-1
9.367135757E0,-4.600715637E-1,-9.357501268E-1,9.053878784E-1
9.385964038E0,-1.138617516E0,-7.149705887E-1,6.524372101E-1
9.404792319E0,-1.878726482E0,-6.460039616E-1,1.607789993E-1
9.423620600E0,-2.084757805E0,-4.643510580E-1,-4.303016663E-1
9.442448882E0,-1.791110516E0,-9.719133377E-2,-7.748384476E-1
9.461277163E0,-1.257547855E0,1.167896986E-1,-9.318351746E-1
9.480105392E0,-9.814739227E-1,1.807163954E-1,-8.261046410E-1
9.498933673E0,-9.809627533E-1,-4.914021492E-2,-5.105848312E-1
9.517761955E0,-1.051018238E0,-3.955138922E-1,-3.186826706E-1
9.536590236E0,-1.220727444E0,-4.726192951E-1,-2.275562286E-2
9.555418517E0,-1.330987453E0,-5.068768263E-1,2.995386124E-1
9.574246798E0,-1.410963058E0,-5.887613297E-1,3.424177170E-1
9.593075080E0,-1.526781082E0,-7.018345594E-1,3.195657730E-1
9.611903361E0,-1.482646465E0,-8.579978943E-1,2.297077179E-1
9.630731642E0,-1.499494076E0,-8.837909698E-1,1.033782959E-1
9.649559923E0,-1.522835016E0,-9.859249592E-1,-1.250143051E-1
9.668388153E0,-1.551124573E0,-1.094829559E0,-4.513607025E-1
9.687216434E0,-1.559709549E0,-1.121303439E0,-6.511592865E-1
9.706044715E0,-1.484904766E0,-1.078746438E0,-7.718715668E-1
9.724872996E0,-1.392225027E0,-1.077976704E0,-8.052601814E-1
9.743701278E0,-1.324761629E0,-1.299486995E0,-8.386545181E-1
9.762529559E0,-1.285329580E0,-1.384421825E0,-8.275227547E-1
9.781357840E0,-1.319557428E0,-1.364366531E0,-9.076895714E-1
9.800186121E0,-1.270442963E0,-1.344436288E0,-9.714870453E-1
9.819014403E0,-1.069204330E0,-9.334527254E-1,-8.000092506E-1
9.837842684E0,-1.115348101E0,4.250192642E-1,-3.482713699E-1
9.856670965E0,-1.375921726E0,4.657838345E-1,-2.287178040E-1
9.875499246E0,-1.330263138E0,-6.277924776E-1,-1.630544662E-1
9.894327475E0,-1.218598366E0,-3.244433403E-1,9.706783295E-2
9.913155757E0,-1.004528046E0,5.510869026E-1,1.405019760E-1
9.931984038E0,-6.850013733E-1,8.213241100E-1,-3.457355499E-2
9.950812319E0,-7.223415375E-2,7.684521675E-1,-1.518802643E-1
9.969640600E0,3.791065216E-1,7.687695026E-1,-1.583986282E-1
9.988468882E0,9.152333736E-1,9.435465336E-1,-1.630253792E-1
1.000729716E1,1.409684420E0,9.602642059E-1,-1.890606880E-1
1.002612544E1,1.688299894E0,1.053378344E0,-2.041454315E-1
1.004495367E1,1.791601896E0,1.503924370E0,-2.312035561E-1
1.006378196E1,1.849934340E0,1.719428062E0,-2.822713852E-1
1.008261024E1,1.790447950E0,1.716982841E0,-3.400549889E-1
1.010143852E1,1.742433548E0,1.806252003E0,-1.944985390E-1
1.012026680E1,1.824238062E0,1.892357111E0,-1.737809181E-1
1.013909508E1,1.858235359E0,2.033336878E0,2.771282196E-2
1.015792336E1,1.982619762E0,1.958923578E0,3.900966644E-1
1.017675164E1,2.144415140E0,1.760408878E0,7.942514420E-1
1.019557987E1,2.103203297E0,1.667322159E0,1.025250435E0
1.021440815E1,1.710663319E0,1.567003489E0,9.184951782E-1
1.023323643E1,1.265276432E0,1.297775507E0,6.972160339E-1
1.025206472E1,8.038229942E-1,1.456773996E0,5.984649658E-1
1.027089300E1,5.365562439E-1,1.477074146E0,6.121602058E-1
1.028972128E1,3.212857246E-1,1.497255564E0,4.068651199E-1
1.030854956E1,3.687973022E-1,1.479733467E0,2.041010857E-1
1.032737784E1,3.067002296E-1,1.868733644E0,-1.347446442E-2
1.034620607E1,3.990721703E-1,2.017159224E0,-4.953436852E-1
1.036503440E1,5.920023918E-1,2.224419117E0,-7.343993187E-1
1.038386263E1,7.812480927E-1,2.557315588E0,-7.961707115E-1
1.040269091E1,7.973108292E-1,2.724539757E0,-8.439159393E-1
1.042151919E1,5.692515373E-1,3.072738647E0,-5.313510895E-1
1.044034748E1,1.229267120E-1,2.820326805E0,-5.956649780E-2
1.045917576E1,-4.785628319E-1,2.616841555E0,2.706656456E-1
1.047800404E1,-7.919220924E-1,2.550764084E0,6.144795418E-1
1.049683232E1,-1.074357510E0,2.439385414E0,7.447953224E-1
1.051566060E1,-1.253746986E0,2.292845249E0,8.110671043E-1
1.053448883E1,-1.418983936E0,2.038948536E0,1.057231426E0
1.055331711E1,-1.584780693E0,1.813340187E0,1.277412415E0
1.057214539E1,-1.740898132E0,1.800908089E0,1.340675831E0
1.059097367E1,-1.766569614E0,1.936024189E0,1.431469917E0
1.060980196E1,-1.719386578E0,1.578778267E0,1.486434937E0
1.062863024E1,-1.517470837E0,1.169432640E0,1.406906128E0
1.064745852E1,-1.094308853E0,2.411465645E-1,1.343869686E0
1.066628680E1,-6.173124313E-1,-1.426203728E0,1.342884541E0
1.068511508E1,-2.156124115E-1,-2.859698534E0,1.399669170E0
1.070394336E1,-2.412548065E-1,-3.103451252E0,1.426133633E0
1.072277164E1,-6.371808052E-1,-2.576584816E0,1.224976540E0
1.074159987E1,-8.655357361E-1,-1.669298887E0,7.775797844E-1
1.076042815E1,-8.537478447E-1,-7.196755409E-1,4.832706451E-1
1.077925643E1,-5.896964073E-1,-3.747701645E-1,3.557224274E-1
1.079808472E1,-2.105522156E-2,-7.141027451E-1,3.952713013E-1
1.081691300E1,2.411360741E-1,-1.070926666E0,5.790843964E-1
1.083574128E1,-1.875829697E-2,-1.328261137E0,4.298076630E-1
1.085456956E1,-5.075802803E-1,-1.376022100E0,-2.084302902E-2
1.087339784E1,-8.836431503E-1,-9.593217373E-1,-6.142711639E-2
1.089222612E1,-9.384970665E-1,-3.553018570E-1,1.963486671E-1
1.091105435E1,-7.950158119E-1,1.965651512E-1,4.304842949E-1
1.092988263E1,-5.764780045E-1,4.615178108E-1,5.934677124E-1
1.094871091E1,-3.428821564E-1,8.911800385E-2,9.163398743E-1
1.096753919E1,-3.064298630E-1,-5.498776436E-1,1.115046024E0
1.098636748E1,-3.256759644E-1,-8.383979797E-1,7.884516716E-1
1.100519576E1,-4.872574806E-1,-7.208969593E-1,6.965098381E-1
1.102402404E1,-2.493920326E-1,-8.436670303E-1,5.896167755E-1
1.104285232E1,1.313633919E-1,-6.535973549E-1,3.853282928E-1
1.106168060E1,4.847831726E-1,-3.962500095E-1,2.886991501E-1
1.108050883E1,9.321103096E-1,-2.934169769E-1,1.832756996E-1
1.109933711E1,1.216380596E0,-6.113855839E-1,-9.787559509E-3
1.111816539E1,1.402873039E0,-1.138302088E0,-4.296011925E-1
1.113699367E1,1.400045395E0,-1.246900558E0,-5.923109055E-1
1.115582196E1,1.255571842E0,-1.176833868E0,-7.530212402E-1
1.117465024E1,1.170855999E0,-9.040184021E-1,-9.042348862E-1
1.119347852E1,1.135157585E0,-7.689657211E-1,-8.904342651E-1
1.121230680E1,1.372348309E0,-8.123569489E-1,-9.227690697E-1
1.123113503E1,1.619137287E0,-9.334897995E-1,-9.991359711E-1
1.124996331E1,1.582391739E0,-8.933813572E-1,-8.871784210E-1
1.126879159E1,1.534762383E0,-4.336338043E-1,-6.795420647E-1
1.128761987E1,1.355269909E0,1.213407516E-1,-5.438380241E-1
1.130644815E1,1.263982773E0,-1.521825790E-2,1.256942749E-2
1.132527643E1,1.291280746E0,-1.189193726E-1,8.473315239E-1
1.134410472E1,1.337952137E0,-3.387598991E-1,9.102158546E-1
1.136293300E1,1.341521740E0,-1.223620176E0,5.037231445E-1
1.138176128E1,1.431852818E0,-1.831021309E0,3.186287880E-1
1.140058956E1,1.413349628E0,-1.716149330E0,1.146602631E-1
1.141941779E1,1.067699909E0,-1.300393105E0,-3.936290741E-3
1.143824607E1,1.059753895E0,-9.188361168E-1,-2.026772499E-1
1.145707435E1,1.110383034E0,-7.169730663E-1,-4.834413528E-2
1.147590263E1,9.479427338E-1,-7.183589935E-1,1.133346558E-1
1.149473091E1,6.166019440E-1,-5.996341705E-1,3.468718529E-1
1.151355919E1,2.685451508E-1,-6.316485405E-1,8.676471710E-1
1.153238748E1,1.563105583E-1,-9.004516602E-1,1.384509087E0
1.155121576E1,4.280948639E-2,-1.014224291E0,1.848737717E0
1.157004399E1,-3.203239441E-1,-1.131927967E0,1.909702778E0
1.158887227E1,-6.982727051E-1,-1.380967379E0,1.868877411E0
1.160770055E1,-1.051209927E0,-1.412750006E0,1.941503525E0
1.162652883E1,-9.547014236E-1,-1.631323099E0,1.913352966E0
1.164535711E1,-9.044160843E-1,-1.857127666E0,1.743686199E0
1.166418539E1,-8.367810249E-1,-2.062220097E0,1.313981533E0
1.168301367E1,-6.692843437E-1,-2.131110907E0,9.373426437E-1
1.170184196E1,-3.901515007E-1,-2.066556692E0,7.732539177E-1
1.172067024E1,-4.546165466E-3,-2.004647255E0,7.266659737E-1
1.173949852E1,3.744010925E-1,-1.854288816E0,6.365075111E-1
1.175832675E1,5.919117928E-1,-1.741975307E0,5.573906898E-1
1.177715503E1,8.648238182E-1,-1.712979794E0,5.307674408E-1
1.179598331E1,1.049436569E0,-1.481065750E0,8.880305290E-1
1.181481159E1,1.272198200E0,-1.157697916E0,1.231968880E0
1.183363987E1,1.399171829E0,-7.729492188E-1,1.698632240E0
1.185246815E1,1.400993824E0,-6.398186684E-1,2.083586216E0
1.187129643E1,1.143312931E0,-6.008176804E-1,2.289101124E0
1.189012472E1,7.112746239E-1,-5.419626236E-1,2.399824142E0
1.190895294E1,4.636592865E-1,-5.808153152E-1,2.164875984E0
1.192778122E1,1.981544495E-1,-1.803555489E-1,1.821507931E0
1.194660951E1,-2.383646965E-1,2.360916138E-2,1.637380123E0
1.196543779E1,-4.155182838E-1,-3.008275032E-1,1.798817158E0
1.198426607E1,-4.291505814E-1,-5.984916687E-1,2.030507088E0
1.200309435E1,-5.127739906E-1,-6.548180580E-1,2.015030861E0
1.202192263E1,-5.672030449E-1,-1.879076958E-1,1.871459961E0
1.204075091E1,-5.672526360E-1,5.484070778E-1,1.613497257E0
1.205957919E1,-2.670679092E-1,1.104954243E0,1.367206097E0
1.207840742E1,5.403318405E-1,1.400839329E0,9.913811684E-1
1.209723571E1,1.475392342E0,1.654894829E0,6.150445938E-1
1.211606399E1,2.415328503E0,1.981705189E0,4.619913101E-1
1.213489227E1,3.607403755E0,2.183739185E0,1.697235107E-1
1.215372055E1,4.419904709E0,2.445591450E0,-2.421813011E-1
1.217254883E1,4.635656834E0,2.949169159E0,-4.912576675E-1
1.219137711E1,4.650196552E0,3.532253742E0,-3.184514046E-1
1.221020539E1,4.633862972E0,3.879345417E0,2.056436539E-1
1.222903367E1,4.328527927E0,4.296350479E0,7.060742378E-1
1.224786196E1,3.439620018E0,4.656689644E0,1.400080681E0
1.226669024E1,2.388678551E0,5.208647728E0,1.987803936E0
1.228550539E1,7.318310738E-1,5.381004810E0,1.825575829E0
1.230434675E1,-1.400010109E0,5.124207497E0,1.136720657E0
1.232317503E1,-3.014950275E0,4.562134266E0,6.643643379E-1
1.234200331E1,-3.636397839E0,3.749414921E0,1.137322426E0
1.236083159E1,-3.311127663E0,3.172119617E0,2.016806126E0
1.237965987E1,-3.197408676E0,2.865362167E0,2.413087368E0
1.239848815E1,-3.763875961E0,2.513994694E0,1.978370190E0
1.241731643E1,-4.467585087E0,2.092275143E0,1.102053642E0
1.243614472E1,-4.994870663E0,1.496853352E0,4.223232269E-1
1.245497300E1,-4.773160934E0,7.263278961E-1,-3.360080719E-2
1.247380128E1,-4.186709404E0,6.614685059E-3,-2.159409523E-1
1.249262956E1,-3.588119507E0,-2.460777760E-1,-6.000328064E-2
1.251145784E1,-3.090986967E0,-5.714881420E-1,2.059659958E-1
1.253028612E1,-2.594197750E0,-8.669128418E-1,1.102008820E-1
1.254911440E1,-2.383986473E0,-8.964443207E-1,9.449005127E-3
1.256794268E1,-2.145632982E0,-9.036705494E-1,1.535415649E-4
1.258677097E1,-1.805743217E0,-1.122532129E0,-2.201375961E-1
1.260559925E1,-1.414467573E0,-1.218560219E0,-7.498569489E-1
1.262442748E1,-1.055908680E0,-1.338585377E0,-1.246001244E0
1.264325576E1,-5.457353592E-1,-1.360301018E0,-1.515385151E0
1.266208404E1,-2.858862877E-1,-7.683498859E-1,-1.455216408E0
1.268091232E1,-1.502974033E-1,-1.487708092E-1,-1.195409298E0
1.269974060E1,1.419630051E-1,1.326380968E-1,-8.521394730E-1
1.271856888E1,6.288738251E-1,2.908253670E-2,-1.065218925E0
1.273739716E1,8.535957336E-1,2.716910839E-2,-1.793997288E0
1.275622544E1,1.125341177E0,6.121108532E-1,-2.323792458E0
1.277505373E1,1.709657550E0,1.098676562E0,-2.186700821E0
1.279388201E1,2.332129478E0,1.436597466E0,-2.159265041E0
1.281271029E1,2.528480530E0,1.767924070E0,-2.333498955E0
1.283153857E1,2.557332754E0,1.547717094E0,-2.611379147E0
1.285036685E1,2.233031034E0,1.587566495E0,-2.738781929E0
1.286919513E1,1.804094434E0,1.707916975E0,-2.443376541E0
1.288802341E1,1.731193900E0,1.433058381E0,-2.054390430E0
1.290685169E1,1.645051003E0,1.438472748E0,-1.704613209E0
1.292567998E1,1.511856318E0,1.584127545E0,-1.410639763E0
1.294450826E1,1.565920115E0,1.802709103E0,-1.086987019E0
1.296333654E1,1.587589979E0,2.032196999E0,-8.691005707E-1
1.298216482E1,1.333361626E0,1.995203853E0,-9.604454041E-1
1.300099310E1,1.264669657E0,1.745664120E0,-1.049780369E0
1.301982138E1,1.500137806E0,1.727573872E0,-7.586574554E-1
1.303864966E1,1.603680611E0,1.647623062E0,-1.997461319E-1
1.305747794E1,1.685382843E0,1.721247077E0,1.284971237E-1
1.307630623E1,1.448926449E0,1.421453714E0,3.294372559E-1
1.309513451E1,1.603416204E0,1.488741636E-1,3.123397827E-1
1.311396279E1,2.042919636E0,-1.216495752E0,-5.607032776E-2
1.313279102E1,1.974783421E0,-1.613573790E0,-8.622388840E-1
1.315161935E1,1.302159786E0,-9.967777133E-1,-1.458470345E0
1.317044758E1,6.690294743E-1,-6.862620711E-1,-1.860190868E0
1.318927586E1,2.742435932E-1,-4.791780710E-1,-1.951778889E0
1.320810414E1,-5.299568176E-3,-6.772799492E-1,-1.811814785E0
1.322693242E1,-4.035313129E-1,-7.388658524E-1,-1.538598537E0
1.324576070E1,-1.159976482E0,-5.702028871E-1,-1.124537945E0
1.326458899E1,-1.667718887E0,-6.088473797E-1,-6.373586655E-1
1.328341727E1,-1.931014061E0,-6.501927972E-1,-3.188896179E-1
1.330224555E1,-2.111409187E0,-7.119139433E-1,-3.037815094E-1
1.332107383E1,-2.468948841E0,-1.059078932E0,-4.394626617E-1
1.333990211E1,-2.883304596E0,-1.148466110E0,-4.699182510E-1
1.335873039E1,-2.997758865E0,-1.024405241E0,-2.333278656E-1
1.337755867E1,-2.964470863E0,-8.036599159E-1,-1.546897888E-1
1.339638696E1,-2.776823997E0,-7.373213172E-1,-2.266883850E-1
1.341521524E1,-2.559075356E0,-6.303923130E-1,-2.513589859E-1
1.343404352E1,-2.271885872E0,-6.376532316E-1,-3.788442612E-1
1.345287175E1,-1.904768467E0,-1.095224857E0,-4.712429047E-1
1.347170003E1,-1.503367424E0,-1.333941221E0,-5.364446640E-1
1.349052831E1,-1.139307499E0,-3.287160397E-1,-4.048166275E-1
1.350935659E1,-1.689864635E0,2.435631990E0,8.942794800E-2
1.352818487E1,-2.312971592E0,1.056653023E0,-6.359510422E-1
1.354701315E1,-2.210619926E0,-5.150351524E-1,-1.067522049E0
1.356584143E1,-1.984621048E0,-7.144031525E-1,-1.095328808E0
1.358466972E1,-1.577873945E0,-3.050103188E-1,-1.228871822E0
1.360349800E1,-1.084107876E0,8.301309347E-1,-1.041285038E0
1.362232628E1,-7.669649124E-1,1.421400547E0,-9.153351784E-1
1.364115456E1,-6.854403019E-1,9.266576767E-1,-9.760007858E-1
1.365998284E1,-8.091380596E-1,2.741370201E-1,-1.145246506E0
1.367881112E1,-1.362889051E0,-4.406439066E-1,-1.408684731E0
1.369763940E1,-1.781943083E0,-8.023177385E-1,-1.340501785E0
1.371646768E1,-1.530021667E0,-6.315566301E-1,-1.033032417E0
1.373529596E1,-1.111879110E0,-2.353191376E-1,-6.309509277E-1
1.375412425E1,-6.836431026E-1,3.030633926E-2,-6.465349197E-1
1.377295253E1,-7.470965385E-1,1.659009457E-1,-8.229503632E-1
1.379178076E1,-9.528405666E-1,2.283709049E-1,-9.246888161E-1
1.381060904E1,-1.520177364E0,-1.150588989E-1,-1.097998619E0
1.382943732E1,-1.748101711E0,-3.787827492E-1,-1.249325275E0
1.384826560E1,-1.815704823E0,-1.284773350E-1,-1.126948833E0
1.386709388E1,-1.561635494E0,1.980631351E-1,-7.648286819E-1
1.388592216E1,-9.960558414E-1,3.463139534E-1,-5.272378922E-1
1.390475044E1,-5.403099060E-1,4.966778755E-1,-5.094432831E-1
1.392357872E1,-2.362675667E-1,5.337045193E-1,-9.216709137E-1
1.394240701E1,-9.453415871E-2,7.409226894E-1,-1.133838654E0
1.396123529E1,-5.248832703E-2,1.012743950E0,-1.036190510E0
1.398006357E1,-1.476657391E-1,1.084164858E0,-9.242076874E-1
1.399889185E1,-3.234894276E-1,9.444472790E-1,-7.874784470E-1
1.401772008E1,-3.714370728E-1,8.664290905E-1,-6.326627731E-1
1.403654836E1,-2.410070896E-1,1.026196718E0,-1.617670059E-1
1.405537664E1,7.390022278E-2,1.624771833E0,6.379003525E-1
1.407420492E1,8.304524422E-2,2.584267855E0,1.783446312E0
1.409303321E1,-8.673858643E-2,1.424792528E0,1.806390762E0
1.411186149E1,1.173543930E-2,7.660479546E-1,1.908196449E0
1.413068977E1,1.890585423E-1,6.271123886E-1,1.908745766E0
1.414951805E1,6.574530602E-1,4.034888744E-1,1.635171890E0
1.416834633E1,1.123821974E0,6.006491184E-1,1.534545898E0
1.418717456E1,1.370670795E0,5.140237808E-1,1.302196503E0
1.420600284E1,1.502309084E0,-1.299562454E-1,8.909902573E-1
1.422483112E1,1.656012774E0,-3.693059683E-1,8.490953445E-1
1.424365940E1,1.104999065E0,1.377773285E-2,4.324760437E-1
1.426248768E1,2.298765182E-1,-6.272149086E-2,1.513977051E-1
1.428131597E1,-1.233887672E-1,-6.407845020E-1,8.193397522E-2
1.430014425E1,-3.651432991E-1,-9.218343496E-1,1.316051483E-1
1.431897253E1,-5.038046837E-1,-7.172830105E-1,1.569871902E-1
1.433780081E1,-5.398283005E-1,-3.855541945E-1,2.671232224E-1
1.435662909E1,-4.524202347E-1,6.271898746E-2,2.721729279E-1
1.437545737E1,-3.179707527E-1,4.583773613E-1,3.782577515E-1
1.439428565E1,-1.238613129E-1,5.792323351E-1,4.237794876E-1
1.441311388E1,-1.991071701E-1,9.050068855E-1,6.321229935E-1
1.443194216E1,-2.478814125E-1,1.031192064E0,7.858934402E-1
1.445077044E1,-4.747276306E-1,9.082807302E-1,9.382638931E-1
1.446959872E1,-8.504204750E-1,8.256618977E-1,1.029365540E0
1.448842701E1,-1.273228645E0,5.724079609E-1,1.177366257E0
1.450725529E1,-1.362864494E0,3.874700069E-1,1.075111389E0
1.452608357E1,-1.427001953E0,4.158437252E-1,9.804859161E-1
1.454491185E1,-1.611340046E0,3.110210896E-1,7.071218491E-1
1.456374013E1,-1.881497383E0,2.378835678E-1,3.113565445E-1
1.458256836E1,-2.043696404E0,2.991433144E-1,6.951904297E-2
1.460139664E1,-2.227581024E0,4.107782841E-1,5.678653717E-2
1.462022492E1,-2.656610966E0,3.486618996E-1,-2.870559692E-4
1.463905321E1,-3.004552841E0,-1.463229656E-1,-2.977404594E-1
1.465788149E1,-3.195629597E0,-3.288340569E-1,-5.639510155E-1
1.467670977E1,-3.189607620E0,-1.212866306E-1,-6.189265251E-1
1.469553805E1,-2.968147755E0,2.159519196E-1,-4.595274925E-1
1.471436633E1,-2.590615749E0,5.120348930E-2,-2.937393188E-1
1.473319461E1,-2.208388329E0,-3.969045877E-1,-3.095369339E-1
1.475202284E1,-1.916147709E0,-1.033921242E-1,-4.329562187E-1
1.477085112E1,-1.590020657E0,1.251643181E0,-1.865124702E-1
1.478967940E1,-1.357125282E0,1.980966568E0,4.311242104E-1
1.480850768E1,-8.248481750E-1,1.487547874E0,7.237687111E-1
1.482733597E1,-1.466894150E-1,1.197801828E0,8.531212807E-1
1.484616425E1,6.020479202E-1,1.597003698E0,9.749059677E-1
1.486499253E1,1.011261940E0,2.039372206E0,8.140830994E-1
1.488382081E1,1.135822773E0,2.476210833E0,7.715654373E-1
1.490264909E1,1.479363680E0,2.793593884E0,6.639375687E-1
1.492147732E1,1.903700113E0,2.777068615E0,3.707685471E-1
1.494030560E1,2.314409971E0,2.447370529E0,-3.744530678E-1
1.495913388E1,2.281671286E0,2.147765160E0,-1.230176926E0
1.497796216E1,2.120526075E0,2.209810257E0,-1.849517822E0
1.499679044E1,2.134134769E0,2.509553909E0,-2.133883476E0
1.501561873E1,2.338403702E0,2.559231997E0,-1.917436123E0
1.503444701E1,2.580021381E0,2.529095650E0,-1.656028748E0
1.505327529E1,2.587217808E0,2.272503376E0,-1.371206760E0
1.507210352E1,2.559063673E0,2.080168962E0,-9.991250038E-1
1.509093180E1,2.817250013E0,1.786220670E0,-6.770553589E-1
1.510976008E1,3.121795893E0,1.893339515E0,-2.085623741E-1
1.512858836E1,3.451560974E0,1.992576241E0,1.264276505E-1
1.514741664E1,3.561581850E0,1.934242129E0,1.639900208E-1
1.516624492E1,3.507126808E0,1.729203582E0,2.049064636E-1
1.518507320E1,3.187464237E0,1.589119077E0,1.203632355E-2
1.520390149E1,2.567865849E0,1.816180825E0,-4.153251648E-3
1.522272972E1,2.380415440E0,1.530262589E0,1.133999825E-1
1.524155800E1,2.101939678E0,1.335700870E0,2.482800484E-1
1.526038628E1,1.676079273E0,1.216575027E0,4.417967796E-1
1.527921456E1,1.291279793E0,1.008021355E0,5.431127548E-1
1.529804284E1,9.364342690E-1,8.445098400E-1,5.454549789E-1
1.531687112E1,5.984969139E-1,7.980774641E-1,3.784441948E-1
1.533569940E1,2.944536209E-1,6.958880424E-1,2.175984383E-1
1.535452763E1,1.141381264E-1,8.620139360E-1,-6.438016891E-2
1.537335591E1,-1.761522293E-1,9.961497784E-1,-2.032508850E-1
1.539218419E1,-1.984996796E-1,8.314793110E-1,-4.384579659E-1
1.541101248E1,-3.368439674E-1,1.186854482E0,-5.812578201E-1
1.542984076E1,-4.359478951E-1,1.221655726E0,-4.334878922E-1
1.544866904E1,-4.270663261E-1,1.086332560E0,-3.256154060E-1
1.546749732E1,-5.422663689E-1,1.086666942E0,8.607387543E-3
1.548632560E1,-5.113420486E-1,2.661010027E-1,-3.088855743E-2
1.550514076E1,-2.374734879E-1,-1.483533621E0,-5.340151787E-1
1.552398211E1,2.147560120E-1,-2.874377489E0,-1.035357952E0
1.554281039E1,2.532567978E-1,-2.394177437E0,-1.298609257E0
1.556163867E1,2.857594490E-1,-1.246771097E0,-1.644435883E0
1.558046696E1,5.521163940E-1,-2.362877131E-1,-1.906727314E0
1.559929524E1,7.076611519E-1,7.507812977E-2,-2.128211021E0
1.561812352E1,1.063857555E0,-4.311537743E-1,-2.193619251E0
1.563695180E1,1.028741360E0,-5.527637005E-1,-1.669298649E0
1.565578003E1,5.100383759E-1,-4.976052046E-1,-1.130143166E0
1.567460831E1,1.069335938E-1,-7.013918161E-1,-5.926127434E-1
1.569343659E1,-9.752178192E-2,-8.441914320E-1,1.893186569E-2
1.571226487E1,-2.569169998E-1,-5.451229811E-1,7.630491257E-1
1.573109315E1,-2.600717545E-1,-2.674629688E-1,1.450314045E0
1.574992143E1,-1.507062912E-1,-1.252362728E-1,1.920702934E0
1.576874972E1,-1.807851791E-1,-3.046264648E-1,2.067100525E0
1.578757794E1,-2.197980881E-2,-7.304222584E-1,1.938373566E0
1.580640623E1,2.473978996E-1,-6.626645327E-1,1.671751499E0
1.582523451E1,4.324407578E-1,-2.349593639E-1,1.427415848E0
1.584406279E1,4.654626846E-1,-2.923269272E-1,1.217144966E0
1.586289107E1,6.394562721E-1,-4.781016111E-1,1.214776516E0
1.588171935E1,7.110848427E-1,-8.717708588E-1,1.133019447E0
1.590054763E1,8.558130264E-1,-1.254356146E0,9.719543457E-1
1.591937586E1,1.207535267E0,-1.121757507E0,8.444948196E-1
1.593820414E1,1.339310884E0,-3.608585596E-1,9.300985336E-1
1.595703242E1,1.424374580E0,4.069138765E-1,1.047410011E0
1.597586070E1,1.326674700E0,9.870640039E-1,1.216488838E0
1.599468899E1,9.287905693E-1,1.457229018E0,1.419301987E0
1.601351727E1,7.698001862E-1,1.399849653E0,1.293512344E0
1.603234555E1,9.091453552E-1,1.733924747E0,1.099958420E0
1.605117383E1,1.159517288E0,2.342424154E0,7.366580963E-1
1.607000206E1,1.503647327E0,2.928211451E0,3.292140961E-1
1.608883034E1,1.847878695E0,3.106521606E0,-1.394996643E-1
1.610765862E1,2.188678503E0,3.290599346E0,-1.254348755E-1
1.612648690E1,2.254180908E0,3.138684511E0,-2.206144333E-1
1.614531518E1,1.980194092E0,2.754577637E0,-6.056962013E-1
1.616414347E1,1.684406281E0,2.545926094E0,-1.075361729E0
1.618297175E1,1.459541559E0,3.096442461E0,-1.317139149E0
1.620180003E1,1.192506075E0,3.497333765E0,-1.414568424E0
1.622062826E1,9.385914803E-1,3.332774162E0,-1.431071281E0
1.623945654E1,6.219563484E-1,2.934062481E0,-1.451309681E0
1.625828482E1,3.899860382E-1,2.762538433E0,-1.308336735E0
1.627711310E1,3.345112801E-1,2.594822884E0,-1.080178738E0
1.629594138E1,4.261841774E-1,2.706073761E0,-7.537441254E-1
1.631476966E1,4.121570587E-1,2.904768705E0,-3.630247116E-1
1.633359789E1,2.412805557E-1,2.804728270E0,-2.530221939E-1
1.635242617E1,1.410193443E-1,2.528934956E0,-2.614197731E-1
1.637125446E1,-1.130123138E-1,2.593467712E0,-2.989592552E-1
1.639008274E1,-3.435192108E-1,2.340198517E0,-4.749217033E-1
1.640891102E1,-5.705723763E-1,2.242160797E0,-5.946755409E-1
1.642773930E1,-5.286812782E-1,2.207096100E0,-7.063312531E-1
1.644656758E1,-2.532320023E-1,2.246704102E0,-5.703988075E-1
1.646539581E1,5.674362183E-2,2.363300323E0,-3.683958054E-1
1.648422409E1,1.238961220E-1,2.456879377E0,-2.943387032E-1
1.650305237E1,4.996490479E-2,2.418641806E0,-2.686262131E-1
1.652188065E1,1.115207672E-1,2.361495733E0,-1.872072220E-1
1.654070893E1,9.090995789E-2,2.544056177E0,4.183864594E-2
1.655953722E1,5.899858475E-2,2.562665701E0,2.153105736E-1
1.657836550E1,4.887914658E-2,2.570898294E0,4.344573021E-1
1.659719378E1,5.822229385E-2,2.473661423E0,5.927972794E-1
1.661602201E1,4.091167450E-2,2.633258581E0,7.011528015E-1
1.663485029E1,-1.632332802E-1,2.780684471E0,7.158579826E-1
1.665367857E1,-2.114863396E-1,2.783159971E0,8.754162788E-1
1.667250685E1,-1.544675827E-1,2.881374598E0,1.148988724E0
1.669133513E1,-3.481678963E-1,2.998888731E0,1.212588310E0
1.671016341E1,-5.205283165E-1,3.005047321E0,1.320118904E0
1.672899169E1,-7.581906319E-1,2.945123196E0,1.422626495E0
1.674781992E1,-9.457912445E-1,2.861085653E0,1.600225925E0
1.676664821E1,-1.162024975E0,2.593355656E0,1.606285572E0
1.678547649E1,-1.567534924E0,2.306304216E0,1.478781223E0
1.680430477E1,-1.884714603E0,1.904712915E0,1.220224380E0
1.682313305E1,-2.227726460E0,1.813724279E0,8.614196777E-1
1.684196133E1,-2.474683285E0,1.601905584E0,5.351991653E-1
1.686078956E1,-2.814600945E0,1.238972187E0,4.041666985E-1
1.687961784E1,-3.145917416E0,6.529314518E-1,1.812610626E-1
1.689844612E1,-3.459241867E0,-1.142799854E-1,-1.860523224E-2
1.691727440E1,-3.512533188E0,-7.440395355E-1,-4.694137573E-1
1.693610268E1,-3.391709805E0,-1.232020855E0,-1.057539463E0
1.695493097E1,-3.096208572E0,-1.449240446E0,-1.724066734E0
1.697375919E1,-2.671851158E0,-1.339931726E0,-2.246253490E0
1.699258748E1,-2.374300003E0,-1.030381441E0,-2.505908012E0
1.701141576E1,-2.259150505E0,-1.078572512E0,-2.589050293E0
1.703024404E1,-2.095754623E0,-1.316832066E0,-2.431671143E0
1.704907232E1,-2.087106228E0,-1.304601669E0,-2.040036678E0
1.706790060E1,-2.126394749E0,-1.100253820E0,-1.538863182E0
1.708672883E1,-2.152153969E0,-9.963517189E-1,-1.117350578E0
1.710555711E1,-1.880243301E0,-9.927504063E-1,-7.933902740E-1
1.712438539E1,-1.780509472E0,-8.270514011E-1,-5.573329926E-1
1.714321367E1,-1.676769257E0,-8.705024719E-1,-5.136151314E-1
1.716204196E1,-1.362918377E0,-7.737801075E-1,-5.785861015E-1
1.718087018E1,-1.165304661E0,-6.829941273E-1,-6.576299667E-1
1.719969846E1,-1.032371521E0,-7.012200356E-1,-8.047056198E-1
1.721852675E1,-8.393130302E-1,-7.181174755E-1,-8.437151909E-1
1.723735503E1,-6.180081367E-1,-6.346502304E-1,-8.630108833E-1
1.725618331E1,-4.638633728E-1,-5.088474751E-1,-8.344936371E-1
1.727501154E1,-4.214148521E-1,-5.315587521E-1,-8.371539116E-1
1.729383982E1,-4.220504761E-1,-6.052784920E-1,-9.108567238E-1
1.731266810E1,-5.077390671E-1,-4.676907063E-1,-9.400825500E-1
1.733149638E1,-4.155211449E-1,-4.270327091E-1,-8.184909821E-1
1.735032466E1,-1.708660126E-1,-3.093304634E-1,-5.677208900E-1
1.736915289E1,-1.236124039E-1,-1.866526604E-1,-4.711236954E-1
1.738798117E1,-1.528387070E-1,-1.571609974E-1,-4.722623825E-1
1.740680946E1,-2.959575653E-1,-1.623551846E-1,-4.521832466E-1
1.742563774E1,-4.305438995E-1,-4.332737923E-1,-6.465177536E-1
1.744446597E1,-4.859747887E-1,-5.336523056E-1,-7.230229378E-1
1.746329425E1,-5.044531822E-1,-4.629120827E-1,-6.306519508E-1
1.748212253E1,-5.076160431E-1,-6.102452278E-1,-5.631299019E-1
1.750095081E1,-6.209225655E-1,-9.239284992E-1,-6.445341110E-1
1.751977904E1,-7.141866684E-1,-1.204143643E0,-9.440379143E-1
1.753860732E1,-7.884659767E-1,-1.197448254E0,-1.063221455E0
1.755743560E1,-7.545146942E-1,-1.258738995E0,-1.034555912E0
1.757626388E1,-6.849956512E-1,-1.268669963E0,-8.967518806E-1
1.759509211E1,-7.265996933E-1,-1.352960229E0,-1.059576035E0
1.761392039E1,-7.414155006E-1,-1.075141191E0,-1.328444958E0
1.763274867E1,-7.355213165E-1,-5.727031231E-1,-1.519146442E0
1.765157696E1,-7.837820053E-1,-2.116999626E-1,-1.572613716E0
1.767040518E1,-9.035916328E-1,-5.616030693E-1,-1.611983776E0
1.768923346E1,-8.848166466E-1,-1.402940989E0,-1.766482353E0
1.770806175E1,-8.344998360E-1,-2.036854982E0,-1.994548798E0
1.772689003E1,-7.429575920E-1,-1.747265816E0,-2.278866768E0
1.774571826E1,-5.902872086E-1,-1.024891615E0,-2.487563133E0
1.776454654E1,-2.867703438E-1,-2.956185341E-1,-2.547163010E0
1.778337482E1,-8.364844322E-2,1.826958656E-1,-2.398353100E0
1.780220305E1,-3.273725510E-2,6.196069717E-2,-2.137477398E0
1.782103133E1,-2.339117527E-1,-4.190082550E-1,-1.769179821E0
1.783985961E1,-8.041908741E-1,-7.997455597E-1,-1.409988403E0
1.785868789E1,-1.561396122E0,-8.938350677E-1,-1.015121937E0
1.787751612E1,-2.276746273E0,-9.314315319E-1,-7.168564796E-1
1.789634440E1,-2.703951359E0,-1.171165943E0,-5.873064995E-1
1.791517268E1,-2.926481247E0,-1.059195757E0,-3.293414116E-1
1.793400091E1,-2.964552879E0,-1.032709837E0,-2.011055946E-1
1.795282919E1,-2.874183178E0,-1.188226461E0,-3.069634438E-1
1.797165748E1,-2.796494484E0,-1.209584236E0,-5.874891281E-1
1.799048576E1,-2.815160751E0,-1.264135599E0,-8.324289322E-1
1.800931399E1,-2.793626785E0,-1.306296587E0,-1.022093773E0
1.802814227E1,-2.397312164E0,-1.277768612E0,-1.160336971E0
1.804697055E1,-1.970818996E0,-1.106651783E0,-1.019162655E0
1.806579883E1,-1.726292610E0,-1.017457962E0,-9.627084732E-1
1.808462706E1,-1.602607250E0,-1.030874491E0,-8.813719749E-1
1.810345534E1,-1.575590134E0,-1.019489288E0,-6.678209305E-1
1.812228362E1,-1.670567513E0,-7.694823742E-1,-5.799360275E-1
1.814111185E1,-1.896920204E0,-3.159480095E-1,-3.399901390E-1
1.815994013E1,-2.029984951E0,3.343470097E-1,2.265915871E-1
1.817876841E1,-2.333580494E0,6.761507988E-1,6.786174774E-1
1.819759669E1,-2.503074169E0,-6.805133820E-2,5.485701561E-1
1.821642492E1,-2.258858204E0,4.033339024E-1,1.007019043E0
1.823525321E1,-1.777848244E0,9.706134796E-1,1.117335320E0
1.825408149E1,-1.308016777E0,1.532494783E0,1.132972240E0
1.827290977E1,-7.445425987E-1,1.503595829E0,1.183229446E0
1.829173800E1,-9.938383102E-2,1.312769175E0,1.088583946E0
1.831056628E1,4.039199352E-1,1.374547958E0,1.136464119E0
1.832939456E1,8.580110073E-1,1.294332504E0,1.001440048E0
1.834822284E1,1.092326880E0,1.189754963E0,8.076314926E-1
1.836705107E1,1.309477568E0,7.868623734E-1,5.026073456E-1
1.838587935E1,1.505671263E0,6.228508949E-1,3.123378754E-1
1.840470763E1,1.562028170E0,6.692323685E-1,2.706727982E-1
1.842353586E1,1.466801405E0,6.660804749E-1,2.147779465E-1
1.844236414E1,1.231918335E0,6.159033775E-1,1.954813004E-1
1.846119242E1,1.170241356E0,4.697716236E-1,3.300409317E-1
1.848002070E1,1.337438583E0,-4.965209961E-2,3.509664536E-1
1.849884893E1,1.235545158E0,-3.782699108E-1,3.096551895E-1
1.851767722E1,8.689785004E-1,-1.086099148E-1,3.446121216E-1
1.853650550E1,4.776353836E-1,1.327955723E-1,3.669033051E-1
1.855533372E1,2.906451225E-1,-1.168608665E-1,3.537817001E-1
1.857416201E1,-4.357004166E-2,-3.263154030E-1,4.375638962E-1
1.859299029E1,-6.860890388E-1,-4.165632725E-1,2.820911407E-1
1.861181857E1,-1.330808640E0,-3.354325294E-1,3.237400055E-1
1.863064680E1,-1.581214428E0,-3.485145569E-1,5.559511185E-1
1.864947508E1,-1.835619926E0,-3.774733543E-1,8.857469559E-1
1.866830336E1,-2.262985229E0,-3.290290833E-1,1.061322212E0
1.868713159E1,-2.850917816E0,-5.216407776E-1,9.409456253E-1
1.870595987E1,-3.409818172E0,-5.975551605E-1,9.086732864E-1
1.872478815E1,-3.706655025E0,-6.405551434E-1,7.708158493E-1
1.874361643E1,-3.993400097E0,-7.324838638E-1,6.848230362E-1
1.876244466E1,-4.063436031E0,-9.686253071E-1,6.501522064E-1
1.878127294E1,-3.894306660E0,-1.017552853E0,5.831451416E-1
1.880010123E1,-3.683825970E0,-8.310217857E-1,4.373188019E-1
1.881892951E1,-3.443132877E0,-6.216688156E-1,1.422777176E-1
1.883775774E1,-3.111453533E0,-4.802954197E-1,-1.483592987E-1
1.885658602E1,-2.663024902E0,-1.384034157E-1,-2.094941139E-1
1.887541430E1,-2.064658165E0,4.721028805E-1,-1.792449951E-1
1.889424253E1,-1.439896584E0,1.290168524E0,2.405586243E-1
1.891307081E1,-9.120049477E-1,1.599495649E0,4.659128189E-1
1.893189909E1,-3.524580002E-1,1.728553295E0,6.406526566E-1
1.895072737E1,3.082766533E-1,1.854345560E0,7.756528854E-1
1.896955560E1,1.107393742E0,2.179729462E0,8.186998367E-1
1.898838388E1,1.851560593E0,2.516412735E0,9.255008698E-1
1.900721216E1,2.486147404E0,2.535444260E0,8.565034866E-1
1.902604039E1,2.755021811E0,2.322539568E0,6.307096481E-1
1.904486867E1,2.826948643E0,2.134660244E0,3.803720474E-1
1.906369696E1,2.937578201E0,1.985659838E0,-2.567782402E-1
1.908252524E1,2.920096397E0,2.114991903E0,-8.780860901E-1
1.910135347E1,3.083011627E0,2.350399971E0,-1.106071949E0
1.912018175E1,3.356403112E0,2.607356071E0,-1.383404732E0
1.913901003E1,3.634347677E0,2.419181347E0,-1.669310093E0
1.915783826E1,3.826364756E0,2.062665462E0,-1.817354679E0
1.917666654E1,3.922307491E0,2.017061472E0,-1.857276440E0
1.919549482E1,3.744819164E0,2.144317389E0,-1.920361042E0
1.921432305E1,3.571417809E0,2.229365110E0,-1.843523026E0
1.923315133E1,3.449524403E0,2.162881374E0,-1.624366283E0
1.925197961E1,3.374887705E0,2.055289984E0,-1.381053925E0
1.927080784E1,3.080507517E0,2.085266829E0,-1.032642841E0
1.928963612E1,2.774893045E0,1.814330578E0,-7.894344330E-1
1.930846440E1,2.530150890E0,1.646648169E0,-5.831623077E-1
1.932729268E1,2.309560537E0,1.721548080E0,-1.945610046E-1
1.934612091E1,2.085608721E0,1.680151463E0,9.425163269E-2
1.936494919E1,1.910775900E0,1.540875435E0,3.647279739E-1
1.938377748E1,1.811364174E0,1.262036085E0,2.805738449E-1
1.940260571E1,1.660821915E0,1.198389530E0,2.324700356E-1
1.942143399E1,1.475052834E0,1.143640995E0,1.018619537E-1
1.944026227E1,1.278969288E0,1.346453905E0,7.567930222E-2
1.945909050E1,9.811515808E-1,1.438743114E0,1.384129524E-1
1.947791878E1,6.146874428E-1,1.430887222E0,3.879666328E-1
1.949674706E1,8.628654480E-2,1.839609623E0,6.406936646E-1
1.951557529E1,-4.095230103E-1,1.522668362E0,7.772202492E-1
1.953440357E1,-4.156541824E-1,8.809957504E-1,6.472148895E-1
1.955323180E1,-3.421568871E-1,3.156473637E-1,1.552028656E-1
1.957206008E1,-3.214378357E-1,-1.315236092E-2,-5.892782211E-1
1.959088836E1,-2.466087341E-1,2.346875668E-1,-6.337780952E-1
1.960971659E1,-9.693479538E-2,3.042507172E-2,-3.873434067E-1
1.962854487E1,1.733622551E-1,-8.464001417E-1,-1.319828033E-1
1.964737315E1,2.790851593E-1,-1.964791536E0,-3.969383240E-1
1.966620138E1,-4.466533661E-2,-2.075252056E0,-8.061866760E-1
1.968502966E1,-6.778368950E-1,-1.704803467E0,-1.154693127E0
1.970385794E1,-9.093208313E-1,-1.451594830E0,-1.527677536E0
1.972268617E1,-8.669013977E-1,-9.699459076E-1,-1.645247936E0
1.974151446E1,-8.157415390E-1,-3.850324154E-1,-1.633570671E0
1.976034274E1,-7.270741463E-1,-4.937231541E-1,-1.525619507E0
1.977917097E1,-4.629878998E-1,-6.591643095E-1,-1.011835098E0
1.979799925E1,-1.768608093E-1,-8.275616169E-1,-5.634541512E-1
1.981682753E1,1.267509460E-1,-7.712461948E-1,-1.672525406E-1
1.983565576E1,7.969188690E-2,-2.147936821E-1,2.520260811E-1
1.985448404E1,9.039878845E-3,8.381772041E-2,6.785540581E-1
1.987331227E1,1.252245903E-1,-3.235459328E-2,1.314918518E0
1.989214055E1,4.186873436E-1,-3.412156105E-1,1.638991833E0
1.991096883E1,6.114315987E-1,-1.575906277E-1,1.764423847E0
1.992979706E1,6.367597580E-1,5.189459324E-1,1.756387234E0
1.994862534E1,6.561903954E-1,7.857503891E-1,1.756922722E0
1.996745362E1,9.802317619E-1,6.408064365E-1,1.844872475E0
1.998628185E1,1.386288166E0,4.402716160E-1,1.973512173E0
2.000511013E1,1.710032701E0,2.253103256E-1,1.985190392E0
2.002393841E1,1.855638504E0,1.545543671E-1,1.717649937E0
2.004276664E1,1.767363548E0,3.837869167E-1,1.535322666E0
2.006159492E1,1.905218601E0,4.940915108E-1,1.546889305E0
2.008042321E1,1.864520311E0,9.998648167E-1,1.613791466E0
2.009925143E1,1.695768356E0,1.491041899E0,1.547727108E0
2.011807972E1,1.844987154E0,1.894205809E0,1.356555939E0
2.013690800E1,1.919842005E0,2.264832258E0,1.057073116E0
2.015573623E1,1.894232035E0,2.683718204E0,5.138373375E-1
2.017456451E1,1.797677279E0,3.124458551E0,-4.928302765E-2
2.019339279E1,1.818559408E0,3.543902874E0,-5.362052917E-1
2.021222102E1,1.913801432E0,3.740849733E0,-8.914470673E-1
2.023104930E1,1.937934637E0,3.791280746E0,-1.267863750E0
2.024987758E1,1.975829601E0,3.820347309E0,-1.674939632E0
2.026870581E1,1.828366756E0,4.116397381E0,-1.759606838E0
2.028753409E1,1.568378210E0,4.025799751E0,-1.898093700E0
2.030636237E1,1.318591595E0,3.999270201E0,-2.008953571E0
2.032519060E1,1.054701805E0,4.186652184E0,-2.105930328E0
2.034401888E1,7.747673988E-1,4.414115906E0,-2.185586929E0
2.036284716E1,3.241066933E-1,4.373724937E0,-2.295919895E0
2.038167539E1,-2.631316185E-1,4.214809895E0,-2.450980663E0
2.040050367E1,-7.809028625E-1,3.937068224E0,-2.383697033E0
2.041933196E1,-1.028072834E0,3.601184845E0,-2.195107937E0
2.043816024E1,-1.272881031E0,3.421005249E0,-1.934343815E0
2.045698847E1,-1.541684151E0,3.141909838E0,-1.719719887E0
2.047581675E1,-1.793755054E0,2.918465614E0,-1.520548820E0
2.049464503E1,-1.999200344E0,2.793741465E0,-1.359935284E0
2.051347352E1,-2.042788029E0,2.711772680E0,-1.012015343E0
2.053263222E1,-1.826998711E0,2.664812565E0,-7.481732368E-1
2.055183669E1,-1.597370625E0,2.774708986E0,-6.406817436E-1
2.057104123E1,-1.481329918E0,2.805541515E0,-5.747032166E-1
2.059024576E1,-1.346068382E0,2.668064117E0,-5.915637016E-1
2.060945024E1,-1.139568806E0,2.671391010E0,-6.093387604E-1
2.062865477E1,-8.566555977E-1,2.783675909E0,-5.019288063E-1
2.064762466E1,-6.782202721E-1,2.846802711E0,-3.234491348E-1
2.066645289E1,-6.799993515E-1,2.691821575E0,-1.260805130E-1
2.068528117E1,-8.322954178E-1,2.525650740E0,1.665587425E-1
2.070410946E1,-1.002585411E0,2.194273233E0,5.708923340E-1
2.072293768E1,-1.067551136E0,1.968367100E0,1.022673130E0
2.074176597E1,-1.220201969E0,1.899414778E0,1.332660675E0
2.076059425E1,-1.534396648E0,1.979427576E0,1.646394730E0
2.077942248E1,-1.879912376E0,2.047331572E0,2.133180618E0
2.079825076E1,-2.390689373E0,1.859047174E0,2.468714714E0
2.081707904E1,-2.830379963E0,1.445596218E0,2.556453228E0
2.083590727E1,-3.056902409E0,1.287944555E0,2.327526093E0
2.085473555E1,-3.018926144E0,1.157713652E0,1.977865696E0
2.087356383E1,-2.701891899E0,6.926317215E-1,1.323780537E0
2.089239206E1,-2.236683846E0,2.007930279E-1,5.353455544E-1
2.091122034E1,-1.810716629E0,-4.358229637E-1,-3.590559959E-1
2.093004857E1,-1.444334030E0,-5.774180889E-1,-1.139903069E0
2.094887685E1,-1.360144615E0,-4.196619987E-1,-1.714955807E0
2.096770513E1,-1.282676697E0,-6.103360653E-1,-2.140381336E0
2.098653336E1,-1.115996838E0,-8.799450397E-1,-2.212185383E0
2.100536164E1,-1.162860870E0,-9.949707985E-1,-2.077660561E0
2.102418992E1,-1.322917938E0,-1.317996979E0,-1.794124603E0
2.104301815E1,-1.435074329E0,-1.468086481E0,-1.354380131E0
2.106184643E1,-1.480448246E0,-1.529149771E0,-8.982939720E-1
2.108067472E1,-1.539353371E0,-1.433164597E0,-3.499689102E-1
2.109950294E1,-1.575075150E0,-1.396417856E0,-4.062366486E-2
2.111833123E1,-1.803996563E0,-1.150179386E0,-3.129768372E-2
2.113715946E1,-1.986362934E0,-9.723112583E-1,-2.313590050E-1
2.115598774E1,-1.949726105E0,-7.526037693E-1,-3.412561417E-1
2.117481602E1,-1.577703476E0,-5.834910870E-1,-4.897279739E-1
2.119364425E1,-1.382397652E0,-5.223481655E-1,-6.221470833E-1
2.121247253E1,-1.239902020E0,-5.553212166E-1,-6.290903091E-1
2.123130081E1,-1.072416782E0,-7.086770535E-1,-7.501816750E-1
2.125012904E1,-1.004447460E0,-6.675157547E-1,-7.975606918E-1
2.126895732E1,-8.825764656E-1,-7.860686779E-1,-7.817964554E-1
2.128778555E1,-7.548184395E-1,-7.814064026E-1,-8.783917427E-1
2.130661383E1,-7.324628830E-1,-7.745256424E-1,-8.915185928E-1
2.132544206E1,-6.524205208E-1,-9.030160904E-1,-9.601778984E-1
2.134427034E1,-3.984923363E-1,-1.037889719E0,-1.110668182E0
2.136309862E1,-2.039251328E-1,-9.907307625E-1,-1.207366467E0
2.138192685E1,-1.488862038E-1,-6.891770363E-1,-1.274278164E0
2.140075513E1,-1.235933304E-1,-7.175788879E-1,-1.369824886E0
2.141958341E1,-2.528238297E-2,-8.997547626E-1,-1.392711639E0
2.143841164E1,1.340060234E-1,-1.129357338E0,-1.590168476E0
2.145723992E1,1.257796288E-1,-9.490187168E-1,-1.574831486E0
2.147606815E1,1.566867828E-1,-6.980381012E-1,-1.464186668E0
2.149489643E1,1.845531464E-1,-3.590462208E-1,-1.202052593E0
2.151372466E1,1.066055298E-1,2.498168945E-1,-8.756399155E-1
2.153255294E1,-2.758693695E-2,4.927625656E-1,-5.190052986E-1
2.155138122E1,-1.718759537E-2,-1.234626770E-1,-6.226615906E-1
2.157020946E1,1.310496330E-1,-6.131167412E-1,-1.010224819E0
2.158903774E1,2.522115707E-1,-6.019189358E-1,-1.352711678E0
2.160786602E1,3.073172569E-1,-4.522855282E-1,-1.524596214E0
2.162669425E1,8.266162872E-2,-7.226371765E-2,-1.502620697E0
2.164552253E1,-2.358617783E-1,-3.897743225E-1,-1.495486259E0
2.166435076E1,-3.633646965E-1,-7.132651806E-1,-1.514262199E0
2.168317904E1,-5.645890236E-1,-3.744838238E-1,-1.480537891E0
2.170200727E1,-1.025369167E0,2.219262123E-1,-1.273117542E0
2.172083555E1,-1.282890797E0,3.109717369E-1,-8.194608688E-1
2.173966383E1,-1.101550579E0,-2.611470222E-2,-5.307369232E-1
2.175849206E1,-1.175747395E0,-6.172657013E-2,-3.724346161E-1
2.177732034E1,-1.600631237E0,1.071414948E-1,-4.558081627E-1
2.179614857E1,-1.858744144E0,-2.464842796E-2,-6.725559235E-1
2.181497685E1,-1.776854038E0,-2.363667488E-1,-8.262171745E-1
2.183380508E1,-1.634412289E0,-8.441662788E-2,-8.270826340E-1
2.185263336E1,-1.515173435E0,-5.185747147E-2,-9.487767220E-1
2.187146159E1,-1.275674820E0,-1.226100922E-1,-1.165225029E0
2.189028987E1,-1.079990864E0,-4.172325134E-3,-1.167388439E0
2.190911815E1,-1.126795292E0,1.440415382E-1,-9.864583015E-1
2.192794638E1,-1.107419968E0,-3.803825378E-2,-1.057262421E0
2.194677466E1,-1.050168991E0,-1.923394203E-1,-1.383533478E0
2.196560289E1,-1.174131870E0,-9.381914139E-2,-1.733833313E0
2.198443117E1,-1.445823193E0,-7.087755203E-2,-1.792434692E0
2.200325940E1,-1.381184578E0,-2.766222954E-1,-1.820436001E0
2.202208768E1,-1.361120701E0,-3.097348213E-1,-1.793391705E0
2.204091591E1,-1.424216270E0,-2.056288719E-1,-1.582494736E0
2.205974419E1,-1.547625065E0,-4.867243767E-1,-1.465584278E0
2.207857242E1,-1.599844456E0,-6.621222496E-1,-1.529719353E0
2.209740071E1,-1.660706520E0,-5.609631538E-1,-1.410794258E0
2.211622893E1,-1.640578747E0,-5.065574646E-1,-1.113073826E0
2.213505722E1,-1.187309265E0,-3.631482124E-1,-1.012628078E0
2.215388550E1,-1.043127537E0,5.942945480E-1,-4.257044792E-1
2.217271372E1,-1.568293095E0,4.368901253E-1,-4.353241920E-1
2.219154201E1,-2.082392216E0,-5.536799431E-1,-5.270028114E-1
2.221037024E1,-1.913040161E0,-1.811914444E-1,-7.748746872E-2
2.222919852E1,-1.558446407E0,5.316309929E-1,1.192584038E-1
2.224802675E1,-1.243604183E0,1.116148949E0,1.247200966E-1
2.226685503E1,-7.828512192E-1,9.085321426E-1,4.361629486E-2
2.228568326E1,-2.783770561E-1,8.462915421E-1,3.239674568E-1
2.230451154E1,9.221076965E-3,8.140597343E-1,7.755513191E-1
2.232333982E1,2.424268723E-1,7.515563965E-1,8.087244034E-1
2.234216805E1,5.079007149E-1,8.854293823E-1,8.325924873E-1
2.236099633E1,1.017596960E0,9.270696640E-1,8.494296074E-1
2.237982456E1,1.571921349E0,6.359372139E-1,8.599734306E-1
2.239865284E1,1.940064669E0,1.955318451E-1,8.435831070E-1
2.241748107E1,2.128091574E0,2.479219437E-2,6.665205956E-1
2.243630935E1,2.240962505E0,4.063358307E-1,5.882921219E-1
2.245513763E1,2.371213436E0,5.537805557E-1,8.702020645E-1
2.247396586E1,2.614340544E0,5.098652840E-1,1.313013554E0
2.249279409E1,2.583706856E0,5.123610497E-1,1.679531574E0
2.251162237E1,2.393199205E0,4.091510773E-1,1.906199932E0
2.253045065E1,2.135798454E0,3.747982979E-1,1.856125355E0
2.254927888E1,1.733109236E0,3.728981018E-1,1.809409142E0
2.256810711E1,1.337453604E0,2.657961845E-1,2.082681179E0
2.258693539E1,1.070344925E0,1.968336105E-2,2.169293880E0
2.260576367E1,3.601448536E-1,-1.128721237E-2,2.203921318E0
2.262459190E1,-5.460004807E-1,3.138589859E-2,1.837982655E0
2.264342018E1,-1.538337708E0,-3.049397469E-1,1.620619774E0
2.266224841E1,-1.902915955E0,-5.421204567E-1,1.671458721E0
2.268107669E1,-2.269304276E0,-6.349825859E-1,2.004199028E0
2.269990492E1,-2.354076385E0,-9.123749733E-1,2.089532852E0
2.271873321E1,-2.690170288E0,-8.852653503E-1,2.156621933E0
2.273756143E1,-2.987658501E0,-1.025005341E0,2.030427456E0
2.275638972E1,-3.367230415E0,-1.290234566E0,1.940566540E0
2.277521794E1,-3.481051922E0,-1.651016474E0,1.838577747E0
2.279404623E1,-3.557959557E0,-1.774266005E0,1.652643204E0
2.281287446E1,-3.595266342E0,-1.705353260E0,1.476017952E0
2.283170274E1,-3.502490997E0,-1.800019503E0,1.399199963E0
2.285053096E1,-3.256000996E0,-1.809093714E0,1.212908745E0
2.286935925E1,-3.170640945E0,-1.762199163E0,9.474864006E-1
2.288818753E1,-2.939629078E0,-1.638021708E0,6.011977196E-1
2.290701576E1,-2.484724998E0,-1.263844728E0,4.968962669E-1
2.292584404E1,-2.064570427E0,-7.261843681E-1,4.183268547E-1
2.294467227E1,-1.751255274E0,-4.550447464E-1,5.437693596E-1
2.296350055E1,-1.448573112E0,-3.382503986E-1,6.302366257E-1
2.298232878E1,-1.041219234E0,-5.631303787E-2,6.863222122E-1
2.300115706E1,-2.479665279E-1,3.611617088E-1,6.859979630E-1
2.301998529E1,4.236333370E-1,1.091417789E0,5.391139984E-1
2.303881357E1,1.009916782E0,1.441053629E0,1.997537613E-1
2.305764180E1,1.633755445E0,1.605416298E0,-1.754760742E-1
2.307647008E1,2.118500233E0,1.792886257E0,-5.254125595E-1
2.309529831E1,2.377759457E0,1.936180353E0,-7.592415810E-1
2.311412659E1,2.452585697E0,1.932085752E0,-1.000606060E0
2.313295482E1,2.388589859E0,1.987011194E0,-1.205519676E0
2.315178310E1,2.170939922E0,1.867058516E0,-1.348801613E0
2.317061133E1,1.962421894E0,1.635484219E0,-1.539817333E0
2.318943961E1,1.885927677E0,1.815989733E0,-1.486769199E0
2.320826784E1,1.987363100E0,2.119570017E0,-1.293049812E0
2.322709612E1,2.250462770E0,2.288267851E0,-1.402442455E0
2.324592440E1,2.296511650E0,2.437934875E0,-1.457372189E0
2.326475263E1,2.372515678E0,2.254055500E0,-1.671192646E0
2.328358091E1,2.449557781E0,1.912208319E0,-1.891844749E0
2.330240914E1,2.454447269E0,1.899984360E0,-2.016029835E0
2.332123737E1,2.404547691E0,1.757900000E0,-1.975266933E0
2.334006565E1,2.353102446E0,1.823442936E0,-1.820685387E0
2.335889393E1,2.269016266E0,1.967683315E0,-1.666843891E0
2.337772216E1,2.143250704E0,1.938873529E0,-1.575548172E0
2.339655044E1,2.045132399E0,1.801661730E0,-1.383727551E0
2.341537867E1,1.711163998E0,1.451853752E0,-1.211782455E0
2.343420690E1,1.394245625E0,1.182575226E0,-9.583578110E-1
2.345303518E1,1.131225109E0,1.112004995E0,-7.008252144E-1
2.347186341E1,7.636356354E-1,1.233507633E0,-5.487842560E-1
2.349069169E1,4.151773453E-1,1.201609373E0,-4.458374977E-1
2.350951992E1,1.478042603E-1,9.750800133E-1,-2.778944969E-1
2.352834820E1,-1.929903030E-2,6.738362312E-1,-3.553285599E-1
2.354717643E1,-1.595568657E-1,3.362433910E-1,-5.263085365E-1
2.356600472E1,-1.403450966E-1,3.010575771E-1,-7.961325645E-1
2.358483294E1,-9.878635406E-3,3.015713692E-1,-9.252982140E-1
2.360366122E1,2.500057220E-3,4.577286243E-1,-1.030877590E0
2.362248946E1,-1.132249832E-2,3.762464523E-1,-1.019149303E0
2.364131774E1,-1.131649017E-1,1.346609592E-1,-8.988838196E-1
2.366014596E1,-2.417464256E-1,-2.659745216E-1,-9.444618225E-1
2.367897425E1,-3.700113297E-1,-4.879708290E-1,-1.050704002E0
2.369780248E1,-4.399533272E-1,-7.737994194E-1,-1.207435131E0
2.371663076E1,-4.344921112E-1,-8.522799015E-1,-1.388548374E0
2.373545899E1,-5.549383163E-1,-6.844685078E-1,-1.477222443E0
2.375428727E1,-6.451368332E-1,-5.703005791E-1,-1.438686371E0
2.377311550E1,-6.517567635E-1,-4.642727375E-1,-1.262575626E0
2.379194378E1,-8.418688774E-1,-2.207083702E-1,-1.102255344E0
2.381077201E1,-1.232588291E0,-4.394173622E-2,-1.021032333E0
2.382960029E1,-1.417077065E0,-1.517887115E-1,-9.177951813E-1
2.384842852E1,-1.501765251E0,-1.592516899E-1,-6.267862320E-1
2.386725680E1,-1.369368553E0,-3.257400990E-1,-3.620653152E-1
2.388608503E1,-1.121024609E0,-3.680782318E-1,-2.716989517E-1
2.390491331E1,-9.513306618E-1,-3.274259567E-1,-2.304191589E-1
2.392374154E1,-9.215750694E-1,-4.441876411E-1,-3.223714828E-1
2.394256982E1,-9.980864525E-1,-6.997900009E-1,-4.367671013E-1
2.396139805E1,-1.074074745E0,-6.819612980E-1,-4.538574219E-1
2.398022633E1,-1.317678452E0,-5.228757858E-1,-4.959053993E-1
2.399905456E1,-1.554396152E0,-5.815672874E-1,-5.791974068E-1
2.401788284E1,-1.621115208E0,-7.354681492E-1,-7.161626816E-1
2.403671107E1,-1.532140255E0,-8.031799793E-1,-7.479038239E-1
2.405553930E1,-1.283658028E0,-6.524000168E-1,-7.433586121E-1
2.407436758E1,-1.031004429E0,-3.104906082E-1,-6.718854904E-1
2.409319581E1,-9.239330292E-1,-2.099289894E-1,-5.836782455E-1
2.411202409E1,-7.909679413E-1,-2.945127487E-1,-4.510693550E-1
2.413085237E1,-6.822624207E-1,-3.152003288E-1,-4.288034439E-1
2.414968060E1,-6.399259567E-1,-3.210990429E-1,-5.831522942E-1
2.416850888E1,-4.354586601E-1,-2.554135323E-1,-6.314015388E-1
2.418733711E1,3.302097321E-3,-4.859590530E-2,-5.456838608E-1
2.420616534E1,4.504837990E-1,5.872139931E-1,-1.629528999E-1
2.422499362E1,8.492431641E-1,1.030586958E0,1.205821037E-1
2.424382185E1,1.228592873E0,9.231722355E-1,2.434539795E-1
2.426265013E1,1.372504234E0,1.608170271E0,3.123564720E-1
2.428147836E1,1.378283024E0,2.020028114E0,4.833269119E-1
2.430030664E1,1.447252989E0,2.036746740E0,8.426575661E-1
2.431913487E1,1.589627743E0,1.641340256E0,9.749741554E-1
2.433796315E1,1.421066761E0,1.579923391E0,9.481029510E-1
2.435679143E1,1.294874668E0,1.286854982E0,6.449365616E-1
2.437561966E1,1.356770992E0,1.651257515E0,2.174386978E-1
2.439444794E1,1.761697531E0,1.825370312E0,-2.115316391E-1
2.441327617E1,2.252424240E0,2.327507973E0,-3.697657585E-1
2.443210446E1,2.423288107E0,2.419779062E0,-4.340739250E-1
2.445093268E1,2.372587681E0,2.171781301E0,-3.501906395E-1
2.446976097E1,2.102992773E0,2.245145082E0,-3.588547707E-1
2.448858919E1,1.758320332E0,2.380333900E0,-3.077917099E-1
2.450741748E1,1.518699408E0,2.564759731E0,-2.541255951E-2
2.452624570E1,1.582450628E0,2.567207336E0,2.622747421E-1
2.454507399E1,1.554775715E0,2.945465088E0,6.791605949E-1
2.456390222E1,1.223178387E0,3.124994755E0,8.572039604E-1
2.458273050E1,1.011693478E0,3.167886734E0,9.155211449E-1
2.460155878E1,6.306128502E-1,3.413791656E0,8.347425461E-1
2.462038701E1,2.758212090E-1,3.463984013E0,5.812168121E-1
2.463921529E1,4.822778702E-2,3.476827145E0,2.952136993E-1
2.465804352E1,5.904197693E-3,3.529860973E0,-8.629560471E-2
2.467687180E1,5.648803711E-2,3.578145027E0,-3.592610359E-1
2.469570003E1,1.299586296E-1,3.570424557E0,-4.905209541E-1
2.471452831E1,3.022189140E-1,3.818895340E0,-5.157752037E-1
2.473335659E1,5.968556404E-1,3.978295803E0,-4.697360992E-1
2.475218482E1,1.063129663E0,4.105513573E0,-4.391884804E-1
2.477101310E1,1.366165638E0,4.576631069E0,-2.222833633E-1
2.478984133E1,1.767027617E0,4.911717892E0,1.431694031E-1
2.480866961E1,1.624094725E0,5.164810658E0,4.956545830E-1
2.482749784E1,9.955811501E-1,5.375500202E0,7.044420242E-1
2.484632612E1,-3.165354729E-1,4.691820145E0,9.043745995E-1
2.486514794E1,-1.546597481E0,3.808051109E0,8.978772163E-1
2.488425284E1,-2.915417671E0,3.005544186E0,3.937726021E-1
2.490345737E1,-3.959754467E0,4.110155106E-1,5.136480331E-1
2.492264846E1,-3.904014587E0,-3.619308949E0,3.613147736E-1
2.494186638E1,-3.296545506E0,-3.633844376E0,7.198524475E-1
2.496107086E1,-3.211956978E0,-1.861347675E0,5.019307137E-1
2.498026201E1,-3.957355976E0,8.510398865E-1,7.651057243E-1
2.499930570E1,-4.846914291E0,2.475924492E-1,1.344710350E0
2.501813393E1,-4.958327770E0,-2.888064623E0,9.164328575E-1
2.503696222E1,-4.276924610E0,-3.565354347E0,1.231689453E-1
2.505579044E1,-3.842753887E0,-1.485486031E0,-4.089045525E-1
2.507461872E1,-2.854954243E0,2.249960899E-1,-9.855966568E-1
2.509343383E1,-1.348139286E0,8.157806396E-1,-1.262133121E0
2.511227524E1,-3.027410507E-1,7.044544220E-1,-1.087871552E0
2.513110347E1,3.636608124E-1,2.101755142E-1,-1.199671745E0
2.514993175E1,-1.560847759E-1,4.560830593E-1,-1.916546822E0
2.516875998E1,-6.918196678E-1,5.793821812E-1,-2.529333115E0
2.518758820E1,-6.273052692E-1,3.118073940E-1,-2.324308395E0
2.520641649E1,-1.808924675E-1,3.889417648E-1,-1.363122463E0
2.522524472E1,3.495299816E-1,9.699325562E-1,-4.504261017E-1
2.524407300E1,4.828474522E-1,1.137806416E0,2.760982513E-2
2.526290122E1,4.105908871E-1,6.884689331E-1,1.059837341E-1
2.528172946E1,4.840879440E-1,-3.950476646E-2,-1.993055344E-1
2.530055774E1,8.715076447E-1,-8.303737640E-2,-6.177396774E-1
2.531938597E1,1.243526936E0,7.342159748E-1,-8.233356476E-1
2.533821425E1,1.541250944E0,1.369971752E0,-9.009046555E-1
2.535704248E1,1.830752850E0,1.343968391E0,-1.016561508E0
2.537587070E1,2.202951670E0,6.864767075E-1,-1.202165127E0
2.539469899E1,2.080323696E0,2.823832035E-1,-1.660554409E0
2.541352722E1,1.742441297E0,-1.181287766E-1,-2.227489948E0
2.543235544E1,1.733611226E0,-5.495104790E-1,-2.718983650E0
2.545118372E1,1.651654363E0,-1.251082420E-1,-2.958949566E0
2.547001196E1,1.603172660E0,7.137157917E-1,-3.180986404E0
2.548884024E1,1.350835919E0,1.420073271E0,-3.572665215E0
2.550766847E1,1.125941753E0,1.777878284E0,-4.086747646E0
2.552649669E1,5.693855882E-1,2.075961828E0,-3.910288811E0
2.554532498E1,-3.653132915E-1,2.194324017E0,-3.560862064E0
2.556415320E1,-1.038236022E0,1.728485584E0,-3.733023643E0
2.558298149E1,-1.079228401E0,1.656754494E0,-3.952126026E0
2.560180972E1,-1.169184327E0,1.636817455E0,-3.543472290E0
2.562063800E1,-1.252783537E0,1.565101862E0,-2.666826248E0
2.563946623E1,-1.387944579E0,1.889203787E0,-1.735506535E0
2.565829446E1,-1.117234230E0,2.229377747E0,-1.358115673E0
2.567712274E1,-1.375118613E0,3.082319498E0,-8.758592606E-1
2.569595096E1,-2.025767326E0,3.209436417E0,-7.289590836E-1
2.571477925E1,-2.672965050E0,2.612849951E0,-7.228183746E-1
2.573360748E1,-2.807931662E0,1.852065802E0,-7.980842590E-1
2.575243576E1,-2.777331591E0,1.556911707E0,-6.500587463E-1
2.577126399E1,-2.740545750E0,1.827753782E0,-2.089567184E-1
2.579009222E1,-2.532239199E0,1.852362871E0,6.380653381E-2
2.580892050E1,-2.304711103E0,1.670576811E0,1.255083084E-1
2.582774873E1,-2.151608706E0,1.451647997E0,-1.961421967E-2
2.584657701E1,-2.172139645E0,1.684605360E0,1.182870865E-1
2.586540524E1,-2.433289289E0,2.202378273E0,5.587882996E-1
2.588423352E1,-2.783939600E0,2.089162350E0,7.414045334E-1
2.590306175E1,-2.972546101E0,1.689008474E0,6.508979797E-1
2.592188998E1,-2.974893570E0,7.987937927E-1,4.394760132E-1
2.594071826E1,-2.703474522E0,-4.495668411E-2,2.829208374E-1
2.595954649E1,-2.373159409E0,-5.796852112E-1,1.193561554E-1
2.597837477E1,-2.161883354E0,-1.002754450E0,-3.975114822E-1
2.599720300E1,-2.027322054E0,-1.258013725E0,-1.293653011E0
2.601603128E1,-1.987129092E0,-6.193497181E-1,-1.796583176E0
2.603485951E1,-2.064203262E0,-2.880721092E-1,-1.913535118E0
2.605368774E1,-1.717241406E0,-7.924172878E-1,-2.099029541E0
2.607251602E1,-1.353327036E0,-7.203388214E-1,-2.105356216E0
2.609134425E1,-1.154979706E0,-1.532759666E-1,-2.237534523E0
2.611017253E1,-1.115572214E0,2.702209949E-1,-2.271683693E0
2.612900076E1,-8.072562218E-1,3.872599602E-1,-2.109131336E0
2.614782904E1,-5.744776726E-1,5.121204853E-1,-1.488358974E0
2.616665727E1,-5.280122757E-1,2.942306995E-1,-1.085989475E0
2.618548550E1,-1.063495636E0,1.020092964E-1,-8.862528801E-1
2.620431378E1,-1.488767505E0,-4.502105713E-2,-4.103860855E-1
2.622314201E1,-1.508367419E0,-3.433277607E-1,2.185821533E-2
2.624197029E1,-1.540946722E0,-1.580257416E-1,2.238903046E-1
2.626079852E1,-1.778521538E0,3.095388412E-2,2.592954636E-1
2.627962675E1,-1.733903527E0,1.946010590E-1,1.918582916E-1
2.629845503E1,-1.424702883E0,1.446757317E-1,6.105098724E-1
2.631728326E1,-9.726424217E-1,1.650657654E-1,9.755630493E-1
2.633611154E1,-8.935196400E-1,2.802839279E-1,9.502744675E-1
2.635493977E1,-1.050337791E0,1.712689400E-1,7.010297775E-1
2.637376800E1,-9.854619503E-1,4.001111984E-1,8.029298782E-1
2.639259628E1,-6.861908436E-1,2.920780182E-1,1.165207863E0
2.641142451E1,-3.523182869E-1,2.227678299E-1,1.168010712E0
2.643025279E1,-5.272433758E-1,4.219436646E-1,8.618192673E-1
2.644908102E1,-7.303447723E-1,1.544218063E-1,4.625806808E-1
2.646790925E1,-4.660093784E-1,-5.473427773E-1,9.553909302E-3
2.648673753E1,-2.920305729E-2,-4.795069695E-1,-4.228792191E-1
2.650556576E1,3.777768612E-1,1.305594444E-1,-8.722248077E-1
2.652439404E1,8.411435485E-1,6.148767471E-1,-1.254336357E0
2.654322227E1,1.409089088E0,6.297678947E-1,-1.508032799E0
2.656205050E1,1.996577024E0,3.673009872E-1,-1.877913952E0
2.658087878E1,2.278269291E0,3.605942726E-1,-2.075986862E0
2.659970701E1,2.211406708E0,6.496648788E-1,-1.889132977E0
2.661853529E1,1.737488151E0,1.232217312E0,-1.583673000E0
2.663736352E1,1.169720411E0,1.091474056E0,-1.704535007E0
2.665619175E1,7.553404570E-1,1.151523590E0,-1.659422398E0
2.667502003E1,1.731235385E-1,1.334234238E0,-1.399653435E0
2.669384826E1,-4.107234478E-1,1.218280792E0,-1.067063332E0
2.671267654E1,-7.311233282E-1,8.703341484E-1,-7.104573250E-1
2.673150477E1,-8.748281002E-1,1.187941074E0,-3.530502319E-1
2.675033300E1,-9.159966707E-1,1.776977539E0,-2.642879486E-1
2.676916128E1,-6.849716902E-1,2.115510464E0,-2.179384232E-1
2.678798951E1,-2.750508785E-1,2.354558468E0,-1.105918884E-1
2.680681779E1,-1.010073423E-1,2.883924961E0,1.873235703E-1
2.682564602E1,-6.100523472E-2,2.621848583E0,2.224721909E-1
2.684447425E1,-2.151749134E-1,2.354400635E0,3.051948547E-2
2.686330253E1,-5.731945038E-1,2.518676758E0,-2.656431198E-1
2.688213076E1,-7.097215652E-1,2.562032223E0,-4.983029366E-1
2.690095904E1,-6.004114151E-1,2.892020226E0,-4.118514061E-1
2.691978727E1,-3.487763405E-1,2.956366539E0,-4.271969795E-1
2.693861555E1,-3.213338852E-1,2.997419834E0,-4.807019234E-1
2.695744378E1,-2.975494862E-1,2.659749508E0,-7.115063667E-1
2.697627201E1,-1.007807255E-1,2.885362148E0,-7.900924683E-1
2.699510029E1,1.642856598E-1,3.155461788E0,-6.886286736E-1
2.701392852E1,6.808421612E-1,3.279071808E0,-2.971549034E-1
2.703275680E1,8.546996117E-1,3.467651844E0,3.266620636E-2
2.705158503E1,3.588771820E-1,3.580207348E0,2.673139572E-1
2.707041326E1,-2.471351624E-1,3.725489140E0,3.693017960E-1
2.708924154E1,-5.451836586E-1,3.759288311E0,6.641421318E-1
2.710806977E1,-5.395088196E-1,3.581566334E0,1.020047188E0
2.712689805E1,-4.584846497E-1,3.631383896E0,1.279974461E0
2.714572628E1,-7.044024467E-1,3.997214317E0,1.396012306E0
2.716455456E1,-8.802638054E-1,3.813655853E0,1.372602463E0
2.718338279E1,-9.491348267E-1,3.485836506E0,1.299215794E0
2.720221102E1,-1.051159382E0,2.822034359E0,1.170819759E0
2.722103930E1,-1.173276901E0,1.794735432E0,8.637833595E-1
2.723985440E1,-1.231577396E0,6.373405457E-3,1.903748512E-1
2.725869581E1,-1.376364231E0,-6.381182671E-1,-5.362558365E-1
2.727752404E1,-1.564122677E0,-3.098740578E-1,-1.208920002E0
2.729635227E1,-1.806882858E0,4.330205917E-1,-1.657225609E0
2.731518055E1,-1.998630047E0,4.311947823E-1,-1.552703857E0
2.733400878E1,-2.053570747E0,-1.276988983E-1,-1.497107983E0
2.735283706E1,-2.726531982E0,-2.748227119E-1,-1.909965992E0
2.737166529E1,-3.531285286E0,-4.018230438E-1,-2.298316479E0
2.739049357E1,-3.540254116E0,-3.968925476E-1,-2.218400002E0
2.740932180E1,-3.243186235E0,-2.458872795E-1,-2.009567738E0
2.742815003E1,-3.033629656E0,-5.601010323E-1,-1.997126579E0
2.744697831E1,-2.997077227E0,-5.771942139E-1,-1.976203918E0
2.746580654E1,-3.170425177E0,-5.213079453E-1,-2.232757568E0
2.748463482E1,-3.409406900E0,-7.197172642E-1,-2.716983795E0
2.750346305E1,-3.376743555E0,-5.451991558E-1,-2.912106037E0
2.752229128E1,-3.100782633E0,-2.934329510E-1,-2.777118206E0
2.754111956E1,-2.445812702E0,-2.745225430E-1,-2.623869896E0
2.755994779E1,-1.621199608E0,-3.995494843E-1,-2.276047230E0
2.757877602E1,-8.726634979E-1,-5.166893005E-1,-1.912271023E0
2.759760430E1,-1.985321045E-1,-5.652418137E-1,-1.482162952E0
2.761643253E1,2.790708542E-1,-7.068548203E-1,-1.313486099E0
2.763526081E1,6.395092010E-1,-7.196378708E-1,-1.128857136E0
2.765408904E1,6.992702484E-1,-5.475454330E-1,-1.129033089E0
2.767291727E1,6.616771221E-1,-5.590231419E-1,-1.107239723E0
2.769174550E1,7.495877743E-1,-6.738116741E-1,-1.127602100E0
2.771057378E1,9.198472500E-1,-9.490375519E-1,-1.090406895E0
2.772940201E1,1.021471024E0,-9.988317490E-1,-1.101275921E0
2.774823024E1,9.839036465E-1,-1.102187157E0,-1.090270519E0
2.776705852E1,8.073394299E-1,-1.132333040E0,-9.439702034E-1
2.778588675E1,5.925998688E-1,-1.111419201E0,-6.374511719E-1
2.780471498E1,2.467741966E-1,-1.141914606E0,-5.298800468E-1
2.782354326E1,-1.869082451E-2,-1.486410141E0,-4.390907288E-1
2.784237149E1,-2.614448071E-1,-1.531485558E0,-3.692770004E-1
2.786119972E1,-6.865134239E-1,-1.356228590E0,-1.916608810E-1
2.788002800E1,-1.134111881E0,-1.058245897E0,1.959838867E-1
2.789885623E1,-1.619807243E0,-1.182073355E0,2.539386749E-1
2.791768446E1,-2.040879726E0,-1.344278097E0,2.192363739E-1
2.793651274E1,-2.512989759E0,-1.140115976E0,1.595363617E-1
2.795534096E1,-2.940353632E0,-8.846724033E-1,3.645133972E-2
2.797416919E1,-3.122054815E0,-9.242656231E-1,-2.132296562E-1
2.799299748E1,-2.862726688E0,-1.313697577E0,-3.738489151E-1
2.801182571E1,-2.639814854E0,-1.357457876E0,-2.862057686E-1
2.803065393E1,-2.388848782E0,-1.446141720E0,-2.783722878E-1
2.804948222E1,-2.278038979E0,-6.869621277E-1,-5.028638840E-1
2.806831044E1,-2.249718189E0,7.691028118E-1,-3.261375427E-1
2.808713867E1,-2.410113335E0,-4.653670788E-1,-9.137673378E-1
2.810596696E1,-2.136093140E0,-5.411019325E-1,-1.043643951E0
2.812479518E1,-1.622447014E0,-7.765231133E-1,-1.099314213E0
2.814362341E1,-1.029764175E0,-1.090294361E0,-1.393658161E0
2.816245164E1,-3.394041061E-1,-1.105918884E-1,-1.507636547E0
2.818127992E1,2.046351433E-1,8.350691795E-1,-1.409016132E0
2.820010815E1,8.159415722E-1,1.092244625E0,-1.279796600E0
2.821893638E1,1.221204758E0,7.489533424E-1,-1.292277336E0
2.823776466E1,1.085259676E0,6.972274780E-1,-1.215440273E0
2.825659289E1,5.500068665E-1,4.261126518E-1,-1.059420109E0
2.827542117E1,3.514003754E-2,-4.818439484E-2,-7.195620537E-1
2.829424940E1,-3.624267578E-1,-3.352360725E-1,-2.459301949E-1
2.831307763E1,-5.940380096E-1,-4.889049530E-1,3.719654083E-1
2.833190586E1,-9.222700596E-1,-4.119071960E-1,5.935683250E-1
2.835073414E1,-1.175072908E0,-4.487581253E-1,5.491695404E-1
2.836956237E1,-1.191612244E0,-8.127691746E-1,4.582166672E-1
2.838839060E1,-1.278613806E0,-1.046234608E0,2.353377342E-1
2.840721888E1,-1.549497604E0,-9.397978783E-1,6.712436676E-3
2.842604711E1,-1.723836422E0,-1.032745123E0,-1.946969032E-1
2.844487534E1,-1.574883461E0,-1.406639099E0,-4.164061546E-1
2.846370362E1,-1.394973278E0,-1.492705584E0,-6.452493668E-1
2.848253185E1,-1.436734200E0,-1.237790346E0,-7.168226242E-1
2.850136008E1,-1.554277182E0,-1.246332645E0,-7.129564285E-1
2.852018836E1,-1.540911913E0,-1.193586588E0,-6.704964638E-1
2.853901659E1,-1.435291052E0,-1.121762514E0,-5.935740471E-1
2.855784482E1,-1.372592449E0,-1.090643883E0,-3.288159370E-1
2.857667310E1,-1.427760124E0,-1.070744038E0,3.612995148E-3
2.859550133E1,-1.436843634E0,-9.728777409E-1,3.436150551E-1
2.861432956E1,-1.639141798E0,-9.914205074E-1,5.811457634E-1
2.863315784E1,-1.869251966E0,-8.848047256E-1,5.828170776E-1
2.865198607E1,-1.942424536E0,-6.116218567E-1,4.535312653E-1
2.867081430E1,-1.862423897E0,1.367812157E-1,4.057478905E-1
2.868964258E1,-1.548003197E0,3.769187927E-1,6.453275681E-1
2.870847081E1,-1.356768370E0,-4.779987335E-1,2.724447250E-1
2.872729904E1,-6.940515041E-1,1.461892128E-1,2.554674149E-1
2.874612732E1,-1.137793064E-1,8.373990059E-1,1.744050980E-1
2.876495555E1,4.831917286E-1,1.364490986E0,3.709778786E-1
2.878378378E1,7.722795010E-1,1.132549763E0,5.656437874E-1
2.880261206E1,6.476299763E-1,5.691404343E-1,6.208543777E-1
2.882144029E1,5.543069839E-1,7.303047180E-2,1.699404716E-1
2.884026852E1,6.074266434E-1,-5.824041367E-1,-3.005676270E-1
2.885909680E1,1.020138144E0,-1.024634838E0,-5.898337364E-1
2.887792503E1,1.430540442E0,-1.057281494E0,-4.220690727E-1
2.889675326E1,1.598660588E0,-1.210772514E0,-2.459001541E-1
2.891558149E1,1.768134594E0,-7.401962280E-1,1.226902008E-2
2.893440977E1,1.468884826E0,-2.689356804E-1,6.151103973E-2
2.895323800E1,1.132264972E0,-2.820906639E-1,2.325282097E-1
2.897206623E1,1.000964046E0,-2.366504669E-1,7.769241333E-1
2.899089451E1,7.549664974E-1,2.740097046E-2,1.205898285E0
2.900972274E1,2.751564980E-1,8.725452423E-1,1.599054337E0
2.902855096E1,-4.128906727E-1,1.775396347E0,2.128914356E0
2.904737925E1,-1.006083012E0,2.107337475E0,2.888125420E0
2.906620748E1,-1.709310055E0,2.230713844E0,3.740620613E0
2.908503571E1,-2.532241583E0,2.281832218E0,4.278381348E0
2.910386399E1,-3.461414814E0,2.426135540E0,4.681423664E0
2.912269222E1,-4.142210960E0,2.670702457E0,4.897334576E0
2.914152044E1,-4.393199921E0,2.588524342E0,4.966550350E0
2.916034873E1,-4.357606411E0,2.230987072E0,4.821471214E0
2.917917696E1,-4.089250565E0,1.748593330E0,4.374855042E0
2.919800518E1,-3.619702816E0,1.298657894E0,3.709890842E0
2.921683346E1,-2.767251730E0,1.054578781E0,2.785374641E0
2.923566169E1,-1.715982914E0,1.428595304E0,1.785516739E0
2.925448992E1,-7.534081936E-1,2.261378765E0,9.254064560E-1
2.927331821E1,1.689722538E-1,3.060473442E0,1.950321198E-1
2.929214643E1,7.589306831E-1,3.537179470E0,-2.919721603E-1
2.931097466E1,9.969866276E-1,2.876032591E0,-6.757049561E-1
2.932980294E1,1.558436155E0,2.109610319E0,-1.285837173E0
2.934863117E1,2.196548700E0,2.031204700E0,-1.662049770E0
2.936745940E1,3.021109104E0,2.519679070E0,-1.811584949E0
2.938628768E1,3.538534641E0,2.943234444E0,-2.182646275E0
2.940511591E1,3.525515795E0,2.973133802E0,-2.839049816E0
2.942394414E1,3.213083506E0,2.147294521E0,-3.423726082E0
2.944277242E1,3.166747808E0,1.545725346E0,-3.747005939E0
2.946160065E1,2.830739260E0,1.469447851E0,-3.926611423E0
2.948042888E1,2.620500326E0,1.329243898E0,-3.982890129E0
2.949925711E1,2.712436914E0,1.651883245E0,-4.029520988E0
2.951808539E1,2.342038631E0,1.711717963E0,-3.753042221E0
2.953691362E1,2.466925144E0,7.594226003E-1,-3.809715748E0
2.955574185E1,2.269997597E0,9.558776617E-1,-3.712581158E0
2.957457013E1,1.921520948E0,1.033412099E0,-3.745549202E0
2.959339836E1,1.801696658E0,8.068239689E-1,-3.555663586E0
2.961222659E1,1.825788975E0,9.862223864E-1,-3.150826931E0
2.963105487E1,1.468811512E0,1.042626739E0,-2.505995750E0
2.964988310E1,1.354852915E0,8.381888270E-1,-1.809536457E0
2.966871133E1,1.012941599E0,7.529399395E-1,-1.379277229E0
2.968753961E1,3.861937523E-1,9.615768194E-1,-1.363545418E0
2.970636784E1,-1.737611294E-1,1.131302118E0,-1.165094852E0
2.972519607E1,-8.352260590E-1,1.005999923E0,-9.725098610E-1
2.974402430E1,-7.319798470E-1,8.016660810E-1,-9.553275108E-1
2.976285258E1,-3.763489723E-1,6.651222706E-1,-1.117876530E0
2.978168081E1,8.212995529E-2,7.823874950E-1,-1.477458477E0
2.980050904E1,4.444165230E-1,9.455078840E-1,-1.782000542E0
2.981933727E1,4.768583775E-1,1.020075440E0,-1.706946850E0
2.983816555E1,3.860886097E-1,6.246589422E-1,-1.584655762E0
2.985699378E1,3.182654381E-1,6.195722818E-1,-1.660804272E0
2.987582201E1,-2.408099174E-2,5.804069042E-1,-1.898246288E0
2.989465024E1,-3.513379097E-1,5.244805813E-1,-2.019896030E0
2.991347852E1,-5.567970276E-1,5.264949799E-1,-2.010145664E0
2.993230675E1,-6.578066349E-1,5.257511139E-1,-2.071804523E0
2.995113498E1,-7.908558846E-1,5.399823189E-1,-2.213284969E0
2.996996321E1,-9.394247532E-1,7.427859306E-1,-2.109073639E0
2.998879149E1,-1.144778013E0,9.606132507E-1,-1.935751915E0
3.000761972E1,-1.166012764E0,8.836047649E-1,-1.893200397E0
3.002644794E1,-9.423949718E-1,5.684165955E-1,-2.010387421E0
3.004527617E1,-7.656831741E-1,5.730776787E-1,-1.935860634E0
3.006410446E1,-7.198565006E-1,1.190009594E0,-1.461101055E0
3.008293268E1,-6.950440407E-1,1.642195225E0,-1.057441711E0
3.010176091E1,-8.136456013E-1,1.438606739E0,-7.945055962E-1
3.012058914E1,-9.660425186E-1,1.088984966E0,-4.744234085E-1
3.013941742E1,-1.196596146E0,1.179388046E0,-2.107625008E-1
3.015824565E1,-1.467590570E0,1.074568748E0,-1.769227982E-1
3.017707388E1,-1.503371716E0,7.642965317E-1,-1.622638702E-1
3.019590211E1,-1.297885180E0,3.808674812E-1,-1.279683113E-1
3.021473039E1,-9.473631382E-1,1.425457001E-2,-1.342201233E-2
3.023355862E1,-4.293594360E-1,-1.914792061E-1,3.776397705E-1
3.025238685E1,-3.316998482E-2,1.041536331E-1,8.183159828E-1
3.027121508E1,-5.455017090E-4,2.366161346E-1,1.179685593E0
3.029004336E1,-2.646284103E-1,4.423584938E-1,1.584606647E0
3.030887159E1,-6.944260597E-1,5.949292183E-1,2.007489204E0
3.032769982E1,-1.100895405E0,9.096064568E-1,2.396034241E0
3.034652805E1,-1.464144707E0,1.189955711E0,2.625231743E0
3.036535633E1,-1.889672279E0,9.819803238E-1,2.751869678E0
3.038418456E1,-2.176966667E0,4.028406143E-1,2.684072018E0
3.040301279E1,-2.363595486E0,1.179680824E-1,2.681279182E0
3.042184102E1,-2.473443508E0,-2.503299713E-2,2.532327652E0
3.044066930E1,-2.377426147E0,-3.691506386E-1,2.293652534E0
3.045949753E1,-2.237371445E0,-2.899198532E-1,2.014619350E0
3.047832576E1,-2.228909016E0,-3.747744560E-1,1.812232018E0
3.049715399E1,-2.118340969E0,-4.623532295E-1,1.384438515E0
3.051598222E1,-2.124742031E0,-1.179413795E-1,1.263173103E0
3.053481050E1,-2.176962852E0,6.619787216E-2,1.136450768E0
3.055363873E1,-2.303485870E0,3.209018707E-2,1.082293510E0
3.057246696E1,-2.482900143E0,9.448719025E-2,1.062278748E0
3.059129518E1,-2.785680771E0,2.196455002E-1,9.915032387E-1
3.061012346E1,-3.068135262E0,6.745152473E-1,1.087069988E0
3.062895169E1,-3.318431854E0,7.718715668E-1,1.444394588E0
3.064777992E1,-3.237534046E0,5.173749924E-1,1.764019489E0
3.066660815E1,-2.967207432E0,3.326911926E-1,1.886444569E0
3.068543643E1,-3.086030483E0,6.613016129E-1,2.071821690E0
3.070426466E1,-3.169846535E0,8.035569191E-1,2.230819225E0
3.072309289E1,-2.937770844E0,6.435773373E-1,2.282445908E0
3.074192117E1,-2.627862930E0,5.006215572E-1,2.234717369E0
3.076074940E1,-2.318438530E0,2.810277939E-1,1.845834255E0
3.077957763E1,-2.003689766E0,5.415592194E-1,1.347691536E0
3.079840586E1,-1.658934593E0,1.231169701E0,8.841691017E-1
3.081723414E1,-9.737858772E-1,1.786659718E0,2.842812538E-1
3.083606237E1,-1.814498901E-1,2.296649456E0,-1.602706909E-1
3.085489060E1,5.411601067E-1,2.647621155E0,-2.423110008E-1
3.087371883E1,1.399625540E0,2.517939806E0,-4.883494377E-1
3.089254711E1,2.045842409E0,2.563090324E0,-8.658561707E-1
3.091137534E1,2.529181004E0,2.436070919E0,-1.447732449E0
3.093020357E1,2.961596012E0,2.374836922E0,-2.079759121E0
3.094903185E1,3.446959496E0,2.393090725E0,-2.493615150E0
3.096786008E1,3.985586405E0,2.412658215E0,-2.675914288E0
3.098668831E1,4.180485725E0,2.425985098E0,-2.613469601E0
3.100551659E1,4.198604107E0,2.409657955E0,-2.523021698E0
3.102434482E1,3.859598160E0,2.258670330E0,-2.352773666E0
3.104317305E1,3.453906059E0,2.013141632E0,-2.187071323E0
3.106200133E1,3.063854456E0,1.667736530E0,-1.959121704E0
3.108082956E1,2.862008095E0,1.671236157E0,-1.626548767E0
3.109965779E1,2.495940208E0,1.855590940E0,-1.104077816E0
3.111848607E1,2.305442572E0,1.663322449E0,-8.583259583E-1
3.113731430E1,2.116583109E0,1.505035520E0,-7.682900429E-1
3.115614253E1,1.865970373E0,1.415354729E0,-5.809230804E-1
3.117497081E1,1.734967947E0,1.375745416E0,-3.222723007E-1
3.119379904E1,1.589862823E0,1.106640816E0,-7.255840302E-2
3.121262727E1,1.472294569E0,8.978002071E-1,8.805274963E-3
3.123145555E1,1.218441010E0,8.963965178E-1,-8.913707733E-2
3.125028378E1,9.732961655E-1,9.363024235E-1,-1.537208557E-1
3.126911201E1,8.606667519E-1,9.880626202E-1,-8.382940292E-2
3.128794029E1,6.947793961E-1,1.021982431E0,1.527500153E-2
3.130676852E1,4.772610664E-1,8.916499615E-1,6.442785263E-2
3.132559675E1,2.930874825E-1,7.659735680E-1,7.165431976E-3
3.134442503E1,5.391883850E-2,8.960809708E-1,-6.020069122E-3
3.136325326E1,-2.420377731E-2,9.119281769E-1,2.194070816E-2
3.138208154E1,-4.842090607E-2,9.714782238E-1,8.830785751E-2
3.140090977E1,-2.171039581E-3,6.898977757E-1,9.117698669E-2
3.141973800E1,5.912160873E-2,1.945767403E-1,-2.857756615E-1
3.143856628E1,1.907873154E-2,-2.310099602E-1,-7.305841446E-1
3.145739451E1,-1.933002472E-1,-7.657481432E-1,-1.176717758E0
3.147622279E1,-2.815437317E-2,-1.180794120E0,-1.703507423E0
3.149505102E1,1.179471016E-1,-1.229555845E0,-2.044015408E0
3.151387925E1,1.722140312E-1,-1.169710159E0,-2.205887318E0
3.153270753E1,3.033251762E-1,-1.288004041E0,-2.320736885E0
3.155153576E1,3.482499123E-1,-1.019030094E0,-2.036385536E0
3.157036404E1,4.583086967E-1,-8.948757648E-1,-1.662315845E0
3.158919227E1,3.624181747E-1,-6.998806000E-1,-1.242036819E0
3.160802050E1,1.632232666E-1,-6.122879982E-1,-9.913239479E-1
3.162684878E1,-8.712959290E-2,-4.106400013E-1,-6.220960617E-1
3.164567701E1,-3.049659729E-2,-4.338990450E-1,-2.010264397E-1
3.166450529E1,1.292977333E-1,-5.121607780E-1,1.634960175E-1
3.168333352E1,1.133317947E-1,-2.328360081E-1,3.431162834E-1
3.170216175E1,-5.202102661E-2,-9.286618233E-2,5.247612000E-1
3.172099003E1,-1.749706268E-2,-3.142210245E-1,4.683260918E-1
3.173981826E1,1.104745865E-1,-4.659134150E-1,5.259642601E-1
3.175864654E1,6.636047363E-2,-5.324513912E-1,5.474095345E-1
3.177747477E1,-6.069850922E-2,-5.978717804E-1,5.239191055E-1
3.179630305E1,-3.220958710E-1,-7.405132055E-1,5.707464218E-1
3.181513128E1,-6.441111565E-1,-1.008843184E0,4.584126472E-1
3.183395956E1,-1.033790588E0,-1.325407267E0,2.525072098E-1
3.185278779E1,-1.487875938E0,-1.332274318E0,1.068630219E-1
3.187161607E1,-2.001474857E0,-1.267194629E0,-6.278514862E-2
3.189044430E1,-2.218157768E0,-1.397887588E0,-1.953163147E-1
3.190927258E1,-2.154881477E0,-1.474808931E0,-3.349628448E-1
3.192810081E1,-2.117261410E0,-1.373393297E0,-5.478558540E-1
3.194692904E1,-2.061267853E0,-1.018747211E0,-6.360421181E-1
3.196575732E1,-2.308851719E0,1.065778732E-2,-3.860917091E-1
3.198458555E1,-2.671979904E0,8.395185471E-1,-1.253299713E-1
3.200341383E1,-2.825540543E0,1.017860413E0,-1.008706093E-1
3.202224206E1,-2.711983681E0,1.094969988E0,-4.653282166E-1
3.204107034E1,-2.301381588E0,1.365354538E0,-1.202284813E0
3.205989857E1,-1.492975712E0,1.807266235E0,-2.002550125E0
3.207872685E1,-6.892013550E-1,2.373945713E0,-2.262866020E0
3.209755508E1,1.651430130E-1,2.367385149E0,-2.356229782E0
3.211638336E1,8.264608383E-1,2.251679897E0,-2.502867222E0
3.213521159E1,1.022608757E0,2.418627501E0,-2.639037132E0
3.215403987E1,7.498197556E-1,2.489984035E0,-2.642497540E0
3.217286810E1,3.749542236E-1,2.042640448E0,-2.871595860E0
3.219169638E1,1.126241684E-2,1.624602795E0,-3.008927345E0
3.221052461E1,-3.361902237E-1,1.432416201E0,-3.125251770E0
3.222935289E1,-7.531137466E-1,1.709399700E0,-3.068080425E0
3.224818112E1,-1.060790539E0,1.391002655E0,-3.124073982E0
3.226700935E1,-1.286439419E0,5.749564171E-1,-3.222080708E0
3.228583763E1,-1.446214676E0,5.580441952E-1,-3.246545792E0
3.230466586E1,-1.721033573E0,1.049249172E0,-3.274735451E0
3.232349414E1,-1.598924637E0,8.198978901E-1,-3.475977898E0
3.234232237E1,-1.613955498E0,1.088366747E0,-3.436237812E0
3.236115065E1,-1.715640545E0,1.097360373E0,-3.083401680E0
3.237997888E1,-1.647017956E0,1.031168461E0,-2.788076401E0
3.239880716E1,-1.928877354E0,1.146181583E0,-2.758464336E0
3.241763539E1,-2.524291515E0,1.222871780E0,-2.587610722E0
3.243646367E1,-2.908844948E0,1.060461998E0,-2.759106159E0
3.245529190E1,-3.256377697E0,1.145131588E0,-2.850453615E0
3.247412013E1,-3.190623283E0,1.397651672E0,-2.974896431E0
3.249294841E1,-2.967231274E0,1.720966816E0,-2.901854038E0
3.251177669E1,-2.729894161E0,1.862251759E0,-2.703728914E0
3.253060492E1,-2.198608875E0,1.741074085E0,-2.599155188E0
3.254943315E1,-1.952330112E0,1.993299961E0,-2.599649429E0
3.256826143E1,-2.112772942E0,2.382143021E0,-2.539129019E0
3.258708966E1,-2.316484451E0,2.545603752E0,-2.548568726E0
3.260591794E1,-2.457716465E0,2.771965981E0,-2.403536558E0
3.262474617E1,-2.434563160E0,2.875370979E0,-2.331453800E0
3.264357446E1,-2.534322262E0,3.054347992E0,-2.117248297E0
3.266240268E1,-2.513783455E0,3.166879177E0,-1.899537086E0
3.268123097E1,-2.480466366E0,3.328962326E0,-1.718344450E0
3.270005919E1,-2.501146317E0,3.116512299E0,-1.484886408E0
3.271888748E1,-2.616771698E0,3.073386669E0,-1.245794773E0
3.273771570E1,-2.537946701E0,2.657221317E0,-1.082862616E0
3.275654393E1,-2.345362186E0,2.248404980E0,-9.980475903E-1
3.277537222E1,-2.124185562E0,2.209309101E0,-9.240186214E-1
3.279420044E1,-1.786083698E0,2.631412506E0,-9.747929573E-1
3.281302872E1,-1.326343060E0,3.145682812E0,-8.324635029E-1
3.283185696E1,-5.985937119E-1,3.212499619E0,-5.183024406E-1
3.285068524E1,1.674361229E-1,2.767365456E0,-2.094898224E-1
3.286951347E1,7.316641808E-1,2.032580853E0,3.604412079E-3
3.288834169E1,1.362472534E0,1.286135674E0,2.030053139E-1
3.290716998E1,1.773539543E0,1.236081600E0,3.447227478E-1
3.292599826E1,1.867448330E0,1.600940704E0,9.450054169E-2
3.294482649E1,1.872825146E0,1.787041664E0,-2.664203644E-1
3.296365472E1,2.146970749E0,1.852913380E0,-3.872961998E-1
3.298248300E1,2.334189415E0,2.128884792E0,-3.332471848E-1
3.300131122E1,2.126344204E0,2.157974243E0,-3.013076782E-1
3.302013951E1,1.643226624E0,1.939197779E0,-4.272789955E-1
3.303896774E1,1.443718910E0,1.736831427E0,-4.177331924E-1
3.305779602E1,1.139658451E0,1.709665537E0,-1.771893501E-1
3.307662425E1,8.237404823E-1,1.529230356E0,1.879386902E-1
3.309578263E1,3.386998177E-1,1.232429266E0,4.306421280E-1
3.311498722E1,-3.313398361E-2,8.028111458E-1,8.738808632E-1
3.313419169E1,-3.889470100E-1,5.424067974E-1,1.319086552E0
3.315339622E1,-9.017086029E-1,4.372978210E-1,1.564255714E0
3.317260070E1,-1.477436543E0,2.602932453E-1,1.715666294E0
3.319180524E1,-1.836590290E0,8.820533752E-2,1.622085571E0
3.321077555E1,-1.986932278E0,-9.548401833E-2,1.472221375E0
3.322960383E1,-1.979659081E0,-3.069360256E-1,1.193083763E0
3.324843206E1,-1.888332367E0,-1.885428429E-1,9.976472855E-1
3.326726034E1,-1.679310799E0,-1.579616070E-1,7.130126953E-1
3.328608857E1,-1.252209663E0,-2.259016037E-1,2.852897644E-1
3.330491680E1,-8.497452736E-1,3.469371796E-2,1.047134399E-3
3.332374508E1,-5.450620651E-1,2.587716579E-1,-1.353721619E-1
3.334257331E1,-2.636308670E-1,6.648724079E-1,-3.329892159E-1
3.336140159E1,-1.549887657E-1,8.916389942E-1,-3.294620514E-1
3.338022982E1,1.806888580E-1,1.066801310E0,-3.923859596E-1
3.339905810E1,3.141264915E-1,1.264898777E0,-4.024219513E-1
3.341788633E1,3.843622208E-1,1.512025833E0,-3.342247009E-1
3.343671456E1,3.815083504E-1,1.989795923E0,-3.473854065E-1
3.345554284E1,5.139508247E-1,2.516726971E0,-5.788345337E-1
3.347437107E1,6.035208702E-1,2.703477383E0,-7.883758545E-1
3.349319935E1,8.261599541E-1,2.597932100E0,-9.763288498E-1
3.351202758E1,1.126826286E0,2.371222973E0,-1.221293449E0
3.353085586E1,1.473591805E0,2.493269205E0,-1.500687122E0
3.354968409E1,1.652823925E0,2.676582575E0,-1.713072777E0
3.356851237E1,1.898870707E0,2.743789911E0,-2.057162285E0
3.358734060E1,2.155415058E0,2.769732952E0,-2.204460621E0
3.360616883E1,2.419939041E0,2.702503681E0,-2.112021923E0
3.362499711E1,2.422763824E0,2.553163052E0,-2.015424252E0
3.364382534E1,2.253105640E0,2.577057123E0,-1.900071621E0
3.366265362E1,1.962299824E0,2.572299957E0,-1.785229683E0
3.368148185E1,1.861056805E0,2.375097752E0,-1.662089825E0
3.370031013E1,1.630872011E0,2.131138802E0,-1.471939564E0
3.371913836E1,1.596173286E0,1.848899126E0,-1.392315865E0
3.373796664E1,1.410687208E0,1.727951288E0,-1.343380451E0
3.375679487E1,1.340613365E0,1.542849779E0,-1.242162704E0
3.377562310E1,1.263122082E0,1.450829268E0,-1.140029907E0
3.379445138E1,1.020717621E0,1.536422253E0,-1.056028366E0
3.381327961E1,7.102861404E-1,1.686922312E0,-1.013453484E0
3.383210789E1,3.197159767E-1,1.722763538E0,-1.059084892E0
3.385093612E1,7.767915726E-2,1.659742355E0,-1.011762619E0
3.386976440E1,-7.533073425E-3,1.653293371E0,-9.115929604E-1
3.388859263E1,1.953506470E-2,1.606558800E0,-6.812820435E-1
3.390742086E1,3.654670715E-2,1.609117508E0,-4.894294739E-1
3.392624914E1,1.384081841E-1,1.571041584E0,-2.533469200E-1
3.394507737E1,1.514568329E-1,1.556266069E0,-1.211814880E-1
3.396390565E1,1.777081490E-1,1.578633070E0,1.059885025E-1
3.398273388E1,2.822084427E-1,1.395222664E0,1.769876480E-1
3.400156216E1,2.906551361E-1,1.226476669E0,1.487894058E-1
3.402039039E1,2.342205048E-1,1.060433149E0,3.044838905E-1
3.403921867E1,1.146435738E-1,8.130645752E-1,4.107193947E-1
3.405804690E1,-1.745362282E-1,2.663257122E-1,3.760089874E-1
3.407687513E1,-4.943752289E-1,-3.530771732E-1,2.656331062E-1
3.409570341E1,-7.968177795E-1,-9.437775612E-1,1.371388435E-1
3.411453164E1,-1.030011654E0,-1.568016768E0,-2.232127190E-1
3.413335992E1,-1.101633072E0,-1.857484102E0,-5.538978577E-1
3.415218815E1,-1.105628014E0,-1.955007672E0,-7.805013657E-1
3.417101643E1,-8.608431816E-1,-1.799777508E0,-1.094998360E0
3.418984466E1,-7.702260017E-1,-1.433976293E0,-1.257428169E0
3.420867294E1,-8.514528275E-1,-1.418959379E0,-1.196114063E0
3.422750117E1,-8.346714973E-1,-1.713740945E0,-9.179596901E-1
3.424632940E1,-8.335170746E-1,-1.759178042E0,-5.979466438E-1
3.426515768E1,-1.020088196E0,-1.436281323E0,-2.967743874E-1
3.428398591E1,-9.403424263E-1,-1.201745272E0,-1.730346680E-2
3.430281419E1,-6.704907417E-1,-7.974662781E-1,3.042316437E-1
3.432164242E1,-3.148374557E-1,-5.227065086E-1,6.158494949E-1
3.434047070E1,-1.167201996E-2,-3.264865875E-1,7.637047768E-1
3.435929893E1,1.441369057E-1,-1.921389103E-1,7.848773003E-1
3.437812722E1,2.365765572E-1,-2.238538265E-1,8.254919052E-1
3.439695544E1,5.542731285E-1,-1.648812294E-1,7.792043686E-1
3.441578373E1,7.640235424E-1,-4.601597786E-2,7.753643990E-1
3.443461196E1,9.536373615E-1,-2.181363106E-2,8.933658600E-1
3.445344018E1,1.048300505E0,-1.354827881E-1,1.049413204E0
3.447226846E1,1.014129400E0,-3.185460567E-1,1.288770676E0
3.449109669E1,8.998661041E-1,-5.608379841E-1,1.458261013E0
3.450992498E1,6.482176781E-1,-5.962986946E-1,1.605680466E0
3.452875320E1,4.981374741E-1,-6.672091484E-1,1.615972996E0
3.454758143E1,4.066977501E-1,-6.561725140E-1,1.624590874E0
3.456640972E1,5.838875771E-1,-8.209931850E-1,1.467562199E0
3.458523794E1,7.754116058E-1,-8.241086006E-1,1.282005310E0
3.460406623E1,1.036067486E0,-8.495812416E-1,9.692044258E-1
3.462289446E1,1.145630360E0,-7.836318016E-1,5.847024918E-1
3.464172274E1,1.193736076E0,-5.270354748E-1,2.493000031E-1
3.466055096E1,1.169541359E0,-1.106159687E-1,9.414863586E-2
3.467937925E1,1.164561510E0,5.725915432E-1,1.643095016E-1
3.469820748E1,1.010788679E0,1.198195457E0,3.167324066E-1
3.471703570E1,8.110694885E-1,1.625693321E0,6.360673904E-1
3.473586399E1,7.021718025E-1,2.126683235E0,8.795251846E-1
3.475469222E1,6.544866562E-1,2.508753061E0,7.128667831E-1
3.477352050E1,8.358578682E-1,2.829903841E0,1.583251953E-1
3.479234873E1,1.353134871E0,3.113196135E0,-6.164212227E-1
3.481117696E1,1.868951321E0,3.411129236E0,-1.513504028E0
3.483000524E1,2.275255442E0,3.427369118E0,-2.332329750E0
3.484883347E1,2.556241035E0,3.037961006E0,-2.958591938E0
3.486766175E1,2.574961662E0,3.091196537E0,-3.304631710E0
3.488648998E1,2.091415167E0,3.417212963E0,-3.592379570E0
3.490531820E1,1.378770590E0,3.700574636E0,-3.525307178E0
3.492414649E1,7.429711819E-1,3.633360386E0,-3.201648235E0
3.494297472E1,1.817579269E-1,3.130243301E0,-2.932980061E0
3.496180300E1,8.356475830E-2,2.619778156E0,-2.299605846E0
3.498063122E1,-4.555511475E-2,2.239362717E0,-1.761896610E0
3.499945951E1,-5.257062912E-1,2.212468624E0,-1.134891987E0
3.501828774E1,-8.688335419E-1,1.960280538E0,-6.757373810E-1
3.503711602E1,-1.007926941E0,1.978458643E0,-1.589913368E-1
3.505594425E1,-8.666272163E-1,1.906234980E0,1.531505585E-1
3.507477248E1,-5.782985687E-1,1.825743914E0,1.366157532E-1
3.509360076E1,-2.162194252E-1,1.740638494E0,-1.515531540E-1
3.511242899E1,1.028032303E-1,1.933637142E0,-3.643927574E-1
3.513125727E1,4.248671532E-1,2.450282335E0,-2.869753838E-1
3.515008550E1,5.505394936E-1,2.900792122E0,-1.084780693E-1
3.516891372E1,5.352363586E-1,3.204564095E0,7.528209686E-2
3.518774201E1,4.304418564E-1,3.366571665E0,4.433250427E-2
3.520657024E1,1.119556427E-1,3.559686899E0,3.160047531E-2
3.522539852E1,-1.107621193E-1,3.517112970E0,6.588745117E-2
3.524422675E1,-1.863479614E-3,3.707149267E0,2.419924736E-1
3.526305498E1,2.519907951E-1,3.964937925E0,4.658808708E-1
3.528188326E1,2.019729614E-1,4.131503582E0,5.380835533E-1
3.530071149E1,5.068778992E-3,4.037599564E0,5.355520248E-1
3.531953977E1,-1.613168716E-1,3.754247189E0,4.637317657E-1
3.533836800E1,-6.074275970E-1,3.542458534E0,2.430872917E-1
3.535719628E1,-1.095158100E0,2.972897053E0,1.344909668E-1
3.537602451E1,-1.345182896E0,2.367144823E0,4.576110840E-2
3.539485274E1,-1.820807934E0,2.480209112E0,1.439332962E-2
3.541368102E1,-2.566884995E0,2.455617666E0,1.249332428E-1
3.543250925E1,-3.012267590E0,1.992224455E0,2.472977638E-1
3.545133753E1,-3.089661121E0,1.708743811E0,3.446245193E-1
3.547016576E1,-3.058153152E0,1.179095984E0,1.140308380E-1
3.548899404E1,-2.898848534E0,9.940736294E-1,-2.468194962E-1
3.550782227E1,-2.671313286E0,7.809195518E-1,-5.533132553E-1
3.552665050E1,-2.726135254E0,1.015306473E0,-4.061784744E-1
3.554547878E1,-2.831991673E0,3.675875664E-1,-5.527501106E-1
3.556430701E1,-2.575170040E0,-4.566249847E-1,-8.018059731E-1
3.558313529E1,-2.210006714E0,-7.957284451E-1,-1.204105377E0
3.560196352E1,-1.970137596E0,-1.328527689E0,-1.671304226E0
3.562079175E1,-1.724973202E0,-1.824769974E0,-2.188007355E0
3.563962003E1,-1.775585175E0,-1.872109890E0,-2.071242809E0
3.565844826E1,-1.619678020E0,-1.915729284E0,-2.056575298E0
3.567727649E1,-1.499675989E0,-1.853317976E0,-2.096148491E0
3.569610477E1,-1.505589247E0,-1.570072174E0,-2.229052067E0
3.571493300E1,-1.672874212E0,-8.656530380E-1,-1.798862457E0
3.573376128E1,-1.785935163E0,-8.477869034E-1,-1.222313881E0
3.575258951E1,-1.706696749E0,-1.131587505E0,-7.163963318E-1
3.577141774E1,-1.830928087E0,-7.691149712E-1,-3.486118317E-1
3.579024602E1,-2.132181883E0,-5.360274315E-1,7.701396942E-2
3.580907425E1,-2.256049633E0,-7.402396202E-1,8.759689331E-2
3.582790248E1,-2.300675154E0,-6.989545822E-1,6.218481064E-2
3.584673076E1,-2.210717916E0,-7.731723785E-1,1.300158501E-1
3.586555899E1,-1.976983786E0,-1.041987896E0,-4.699087143E-2
3.588438722E1,-2.012226105E0,-8.094267845E-1,-2.316412926E-1
3.590321550E1,-1.906136990E0,-5.797028542E-1,-4.436507225E-1
3.592204372E1,-1.829483509E0,-3.680243492E-1,-6.714630127E-1
3.594087196E1,-1.504175425E0,-4.340858459E-1,-5.754427910E-1
3.595970024E1,-1.205601931E0,-5.162396431E-1,-5.460314751E-1
3.597852847E1,-9.799401760E-1,-8.880329132E-1,-7.417340279E-1
3.599735669E1,-7.754611969E-1,-1.068836689E0,-9.729475975E-1
3.601618492E1,-8.435137272E-1,-7.912082672E-1,-8.656191826E-1
3.603501321E1,-9.311463833E-1,-5.277066231E-1,-1.291146278E-1
3.605384143E1,-1.065013766E0,-1.914787292E-1,8.644771576E-2
3.607266972E1,-1.613062382E0,-2.235045433E-1,2.364778519E-2
3.609149794E1,-2.100612640E0,-4.135456085E-1,-5.361127853E-1
3.611032617E1,-2.228687286E0,-9.767131805E-1,-1.115797997E0
3.612915440E1,-2.073910952E0,-1.665501595E0,-1.310622215E0
3.614798268E1,-1.734052896E0,-1.929308891E0,-1.194457054E0
3.616681091E1,-1.205423594E0,-1.646815300E0,-1.262443304E0
3.618563914E1,-7.096209526E-1,-1.239160061E0,-1.420979023E0
3.620446737E1,-2.736252546E-1,-9.337320328E-1,-1.534368277E0
3.622329565E1,-6.637334824E-3,-5.820116997E-1,-1.375030041E0
3.624212388E1,-7.008683681E-2,-2.953987122E-1,-1.264233351E0
3.626095211E1,-4.298952818E-1,-2.606821060E-1,-1.263793707E0
3.627978039E1,-7.022819519E-1,-4.324836731E-1,-1.254287958E0
3.629860862E1,-1.102502346E0,-4.315242767E-1,-1.342964172E0
3.631743685E1,-1.581663132E0,-5.980410576E-1,-1.342196465E0
3.633626508E1,-1.929378033E0,-6.242046356E-1,-1.417129993E0
3.635509336E1,-1.907247305E0,-6.773953438E-1,-1.679657698E0
3.637392159E1,-1.715732574E0,-2.401256561E-1,-1.553367138E0
3.639274982E1,-1.398574114E0,3.308725357E-1,-1.269668579E0
3.641157805E1,-9.813156128E-1,4.211854935E-1,-9.450225830E-1
3.643040633E1,-7.641551495E-1,6.793222427E-1,-8.160917759E-1
3.644923456E1,-5.811839104E-1,9.970378876E-1,-5.917284489E-1
3.646806279E1,-3.857905865E-1,9.947280884E-1,-4.969158173E-1
3.648689102E1,-3.021111488E-1,7.607059479E-1,-4.354562759E-1
3.650571930E1,-5.659887791E-1,6.569852829E-1,-3.003146648E-1
3.652454753E1,-1.032330036E0,3.491601944E-1,-2.664594650E-1
3.654337576E1,-1.268628597E0,-6.718444824E-2,-1.975383759E-1
3.656220399E1,-1.345554590E0,-8.011054993E-2,-1.614944935E-1
3.658103227E1,-1.616662741E0,-2.577152252E-1,-4.569100142E-1
3.659986050E1,-1.761523724E0,-7.366619110E-1,-9.222867489E-1
3.661868873E1,-2.015206337E0,-4.114236832E-1,-1.490307093E0
3.663751696E1,-2.216382265E0,-8.970928192E-2,-2.012440443E0
3.665634524E1,-1.905587196E0,2.647132874E-1,-2.168810844E0
3.667517346E1,-1.279790401E0,7.130880356E-1,-1.925521851E0
3.669400169E1,-7.185306549E-1,1.002305984E0,-1.391309142E0
3.671282992E1,-1.665973663E-1,1.206312180E0,-8.840091825E-1
3.673165820E1,1.971211433E-1,1.180550575E0,-5.948896408E-1
3.675048643E1,9.898853302E-2,9.472103119E-1,-5.395097733E-1
3.676931466E1,-1.576795578E-1,3.911952972E-1,-5.178607702E-1
3.678814289E1,-5.460467339E-1,-2.264595032E-2,-5.589711666E-1
3.680697117E1,-9.970312119E-1,-4.937267303E-1,-8.349516988E-1
3.682579940E1,-1.254949093E0,-3.383007050E-1,-1.100125551E0
3.684462763E1,-1.276220322E0,4.815959930E-2,-1.322609663E0
3.686345586E1,-1.275334358E0,6.080446243E-1,-7.898803353E-1
3.688228414E1,-1.243600845E0,1.087503433E0,-2.162582874E-1
3.690111237E1,-1.019405365E0,9.503421783E-1,6.994557381E-2
3.691994060E1,-9.347290993E-1,2.656869888E-1,-6.012678146E-2
3.693876883E1,-1.027820587E0,-3.498916626E-1,-1.050858498E-1
3.695759711E1,-1.048151970E0,-3.603563309E-1,-2.657771111E-2
3.697642534E1,-7.324776649E-1,-2.427525520E-1,-2.685832977E-2
3.699525357E1,-9.228801727E-2,-1.129646301E-1,1.164865494E-1
3.701408180E1,5.385932922E-1,3.059740067E-1,2.247517109E-1
3.703291008E1,7.949309349E-1,8.412022591E-1,5.897235870E-2
3.705173831E1,8.408136368E-1,1.467274189E0,6.286334991E-2
3.707056654E1,9.273366928E-1,1.803769588E0,8.085465431E-2
3.708939477E1,1.142443657E0,1.678499699E0,1.815061569E-1
3.710822305E1,1.372951984E0,1.321616173E0,3.768470287E-1
3.712705128E1,1.336833477E0,9.944443703E-1,3.986072540E-1
3.714587951E1,9.738440514E-1,9.671039581E-1,5.181992054E-1
3.716470774E1,7.656602859E-1,1.077476978E0,5.454065800E-1
3.718353602E1,5.457949638E-1,1.276079655E0,8.341395855E-1
3.720236425E1,3.791780472E-1,1.067005157E0,9.785332680E-1
3.722119248E1,5.022201538E-1,7.467951775E-1,1.164784670E0
3.724002070E1,4.086031914E-1,6.197195053E-1,1.105408192E0
3.725884899E1,-2.631335258E-1,5.771727562E-1,9.559526443E-1
3.727767722E1,-9.395918846E-1,5.929069519E-1,1.032254219E0
3.729650544E1,-1.374190331E0,4.946465492E-1,1.163262367E0
3.731533367E1,-1.787148952E0,3.411002159E-1,1.287832260E0
3.733416190E1,-2.268479824E0,4.504241943E-1,1.504817486E0
3.735299018E1,-2.746204853E0,3.654875755E-1,1.454277039E0
3.737181841E1,-3.033466816E0,1.932115555E-1,1.380932808E0
3.739064664E1,-3.081152439E0,1.081614494E-1,1.263237476E0
3.740947487E1,-2.997339725E0,2.286243439E-2,1.204792976E0
3.742830310E1,-2.814533234E0,-8.200120926E-2,1.132771015E0
3.744713138E1,-2.613337517E0,-1.371083260E-1,1.007310390E0
3.746595961E1,-2.463479519E0,-1.177268028E-1,8.584003448E-1
3.748478784E1,-2.310712814E0,-2.353696823E-1,7.705011368E-1
3.750361607E1,-2.061518192E0,-3.539090157E-1,6.002330780E-1
3.752244435E1,-1.823155880E0,-3.818955421E-1,3.161897659E-1
3.754127258E1,-1.540606976E0,-2.323350906E-1,-1.146235466E-1
3.756010081E1,-1.292677879E0,2.564592361E-1,-6.303133965E-1
3.757892904E1,-1.178025723E0,1.255997181E0,-9.396748543E-1
3.759775732E1,-8.689446449E-1,1.981185913E0,-1.405122757E0
3.761658555E1,-1.995973587E-1,2.064630508E0,-1.951172352E0
3.763541378E1,4.342551231E-1,2.034671307E0,-2.289607525E0
3.765424201E1,9.909918308E-1,1.737810612E0,-2.766297817E0
3.767307024E1,1.546226025E0,1.518103600E0,-3.090875626E0
3.769189852E1,1.966901064E0,1.542847633E0,-3.189298630E0
3.771072675E1,2.424293518E0,1.562527657E0,-3.229108810E0
3.772955498E1,2.802803278E0,1.844649792E0,-3.119451046E0
3.774838320E1,2.968318939E0,2.011054993E0,-3.101729870E0
3.776721143E1,2.902854443E0,1.948185444E0,-3.163774490E0
3.778603966E1,2.715873718E0,1.508560181E0,-3.276687145E0
3.780486794E1,2.408567429E0,1.426108837E0,-3.142442226E0
3.782369617E1,2.143360853E0,1.562719822E0,-2.948783875E0
3.784252440E1,2.088326693E0,1.547574520E0,-2.729374886E0
3.786135263E1,2.088394165E0,1.528203964E0,-2.326136589E0
3.788018091E1,2.063174248E0,1.395283222E0,-1.907369137E0
3.789900914E1,2.052967072E0,1.005500793E0,-1.708809376E0
3.791783737E1,1.717465639E0,8.199658394E-1,-1.651458263E0
3.793666560E1,1.252271414E0,8.737020493E-1,-1.361046791E0
3.795549383E1,9.268801212E-1,8.734440804E-1,-1.064646244E0
3.797432211E1,6.199812889E-1,1.047407150E0,-8.015346527E-1
3.799315034E1,2.297296524E-1,9.915132523E-1,-4.927401543E-1
3.801197857E1,-3.885984421E-2,7.551875114E-1,-2.317838669E-1
3.803080680E1,-4.070982933E-1,6.330995560E-1,-1.728134155E-1
3.804963503E1,-8.098015785E-1,5.454711914E-1,-3.302159309E-1
3.806846331E1,-9.697570801E-1,3.118591309E-1,-5.859742165E-1
3.808729154E1,-9.102816582E-1,3.142981529E-1,-6.528182030E-1
3.810611977E1,-8.337783813E-1,7.254114151E-1,-3.744826317E-1
3.812494800E1,-7.449150085E-1,8.442115784E-1,-4.383611679E-2
3.814377622E1,-3.523635864E-1,-9.661912918E-2,3.989362717E-2
3.816260451E1,3.003597260E-3,-1.385205984E0,-2.887272835E-1
3.818143274E1,2.280540466E-1,-2.408119678E0,-7.843899727E-1
3.820026097E1,4.064102173E-1,-2.683907986E0,-1.283041477E0
3.821908919E1,4.558887482E-1,-2.666672230E0,-1.599544525E0
3.823791748E1,5.587530136E-1,-2.889569521E0,-1.877337456E0
3.825674570E1,6.599328518E-1,-2.977450609E0,-2.002566338E0
3.827557393E1,4.873898029E-1,-2.653315067E0,-1.976424694E0
3.829440216E1,1.858577728E-1,-2.328817844E0,-2.131491184E0
3.831323039E1,-1.770529747E-1,-2.074107170E0,-2.169760704E0
3.833205862E1,-2.807631493E-1,-2.049829960E0,-1.964704037E0
